build	computer.platform	date	time	timestamp	time_elapsed_ms	subject	group	session	blockcode	blocknum	trialcode	trialnum	stimulus_left	stimulus_right	stim_index	target_present	response	correct	latency
6.6.1	win	2022-12-14	14:48:16	15:00:59	761547	62865e3456c142785cfad2a7	871904279	1	practice_slash	5	practice_slash	1	stimuli_distractor_trianglediamonds.svg	stimuli_target_squarediamonds.svg	11	yes	0	0	2000
6.6.1	win	2022-12-14	14:48:16	15:00:59	761547	62865e3456c142785cfad2a7	871904279	1	practice_slash	5	advance_on_keypress_SLASH	2	stimuli_distractor_trianglediamonds.svg	stimuli_target_squarediamonds.svg	11	yes	57	0	1034
6.6.1	win	2022-12-14	14:48:16	15:01:03	765429	62865e3456c142785cfad2a7	871904279	1	practice_slash	5	practice_slash	3	stimuli_target_diamondsquares.svg	stimuli_distractor_trianglediamonds.svg	6	yes	53	1	1199
6.6.1	win	2022-12-14	14:48:16	15:01:03	765429	62865e3456c142785cfad2a7	871904279	1	practice_slash	5	advance_on_keypress_SLASH	4	stimuli_target_diamondsquares.svg	stimuli_distractor_trianglediamonds.svg	6	yes	57	0	758
6.6.1	win	2022-12-14	14:48:16	15:01:06	768605	62865e3456c142785cfad2a7	871904279	1	practice_slash	5	practice_slash	5	stimuli_target_squarediamonds.svg	stimuli_distractor_diamondtriangles.svg	2	yes	53	1	758
6.6.1	win	2022-12-14	14:48:16	15:01:06	768605	62865e3456c142785cfad2a7	871904279	1	practice_slash	5	advance_on_keypress_SLASH	6	stimuli_target_squarediamonds.svg	stimuli_distractor_diamondtriangles.svg	2	yes	57	0	655
6.6.1	win	2022-12-14	14:48:16	15:01:10	772913	62865e3456c142785cfad2a7	871904279	1	practice_slash	5	practice_slash	7	stimuli_distractor_diamondtriangles.svg	stimuli_distractor_diamondtriangles.svg	13	no	0	1	2000
6.6.1	win	2022-12-14	14:48:16	15:01:10	772913	62865e3456c142785cfad2a7	871904279	1	practice_slash	5	advance_on_keypress_SLASH	8	stimuli_distractor_diamondtriangles.svg	stimuli_distractor_diamondtriangles.svg	13	no	57	0	868
6.6.1	win	2022-12-14	14:48:16	15:01:15	777430	62865e3456c142785cfad2a7	871904279	1	practice_slash	5	practice_slash	9	stimuli_distractor_diamondtriangles.svg	stimuli_distractor_trianglediamonds.svg	14	no	0	1	2000
6.6.1	win	2022-12-14	14:48:16	15:01:15	777430	62865e3456c142785cfad2a7	871904279	1	practice_slash	5	advance_on_keypress_SLASH	10	stimuli_distractor_diamondtriangles.svg	stimuli_distractor_trianglediamonds.svg	14	no	57	0	614
6.6.1	win	2022-12-14	14:48:16	15:01:18	780781	62865e3456c142785cfad2a7	871904279	1	practice_slash	5	practice_slash	11	stimuli_distractor_diamondtriangles.svg	stimuli_target_trianglecircles.svg	9	yes	53	1	1084
6.6.1	win	2022-12-14	14:48:16	15:01:18	780781	62865e3456c142785cfad2a7	871904279	1	practice_slash	5	advance_on_keypress_SLASH	12	stimuli_distractor_diamondtriangles.svg	stimuli_target_trianglecircles.svg	9	yes	57	0	800
6.6.1	win	2022-12-14	14:48:16	15:01:22	784357	62865e3456c142785cfad2a7	871904279	1	practice_slash	5	practice_slash	13	stimuli_target_squarediamonds.svg	stimuli_distractor_trianglediamonds.svg	5	yes	53	1	1127
6.6.1	win	2022-12-14	14:48:16	15:01:22	784357	62865e3456c142785cfad2a7	871904279	1	practice_slash	5	advance_on_keypress_SLASH	14	stimuli_target_squarediamonds.svg	stimuli_distractor_trianglediamonds.svg	5	yes	57	0	641
6.6.1	win	2022-12-14	14:48:16	15:01:26	788646	62865e3456c142785cfad2a7	871904279	1	practice_slash	5	practice_slash	15	stimuli_distractor_trianglediamonds.svg	stimuli_distractor_trianglediamonds.svg	15	no	0	1	2000
6.6.1	win	2022-12-14	14:48:16	15:01:26	788646	62865e3456c142785cfad2a7	871904279	1	practice_slash	5	advance_on_keypress_SLASH	16	stimuli_distractor_trianglediamonds.svg	stimuli_distractor_trianglediamonds.svg	15	no	57	0	606
6.6.1	win	2022-12-14	14:48:16	15:01:29	791893	62865e3456c142785cfad2a7	871904279	1	practice_slash	5	practice_slash	17	stimuli_distractor_trianglediamonds.svg	stimuli_target_circlediamonds.svg	10	yes	53	1	980
6.6.1	win	2022-12-14	14:48:16	15:01:29	791893	62865e3456c142785cfad2a7	871904279	1	practice_slash	5	advance_on_keypress_SLASH	18	stimuli_distractor_trianglediamonds.svg	stimuli_target_circlediamonds.svg	10	yes	57	0	764
6.6.1	win	2022-12-14	14:48:16	15:01:33	795765	62865e3456c142785cfad2a7	871904279	1	practice_slash	5	practice_slash	19	stimuli_distractor_diamondtriangles.svg	stimuli_target_diamondcircles.svg	8	yes	53	1	1452
6.6.1	win	2022-12-14	14:48:16	15:01:33	795765	62865e3456c142785cfad2a7	871904279	1	practice_slash	5	advance_on_keypress_SLASH	20	stimuli_distractor_diamondtriangles.svg	stimuli_target_diamondcircles.svg	8	yes	57	0	553
6.6.1	win	2022-12-14	14:48:16	15:01:37	799963	62865e3456c142785cfad2a7	871904279	1	practice_slash	5	practice_slash	21	stimuli_distractor_trianglediamonds.svg	stimuli_distractor_diamondtriangles.svg	16	no	0	1	2000
6.6.1	win	2022-12-14	14:48:16	15:01:37	799963	62865e3456c142785cfad2a7	871904279	1	practice_slash	5	advance_on_keypress_SLASH	22	stimuli_distractor_trianglediamonds.svg	stimuli_distractor_diamondtriangles.svg	16	no	57	0	633
6.6.1	win	2022-12-14	14:48:16	15:01:40	802940	62865e3456c142785cfad2a7	871904279	1	practice_slash	5	practice_slash	23	stimuli_target_circlediamonds.svg	stimuli_distractor_diamondtriangles.svg	1	yes	53	1	694
6.6.1	win	2022-12-14	14:48:16	15:01:40	802940	62865e3456c142785cfad2a7	871904279	1	practice_slash	5	advance_on_keypress_SLASH	24	stimuli_target_circlediamonds.svg	stimuli_distractor_diamondtriangles.svg	1	yes	57	0	674
6.6.1	win	2022-12-14	14:48:16	15:01:44	806069	62865e3456c142785cfad2a7	871904279	1	practice_slash	5	practice_slash	25	stimuli_distractor_diamondtriangles.svg	stimuli_target_circletriangles.svg	7	yes	53	1	789
6.6.1	win	2022-12-14	14:48:16	15:01:44	806069	62865e3456c142785cfad2a7	871904279	1	practice_slash	5	advance_on_keypress_SLASH	26	stimuli_distractor_diamondtriangles.svg	stimuli_target_circletriangles.svg	7	yes	57	0	629
6.6.1	win	2022-12-14	14:48:16	15:01:47	809644	62865e3456c142785cfad2a7	871904279	1	practice_slash	5	practice_slash	27	stimuli_target_diamondsquares.svg	stimuli_distractor_diamondtriangles.svg	3	yes	53	1	1299
6.6.1	win	2022-12-14	14:48:16	15:01:47	809644	62865e3456c142785cfad2a7	871904279	1	practice_slash	5	advance_on_keypress_SLASH	28	stimuli_target_diamondsquares.svg	stimuli_distractor_diamondtriangles.svg	3	yes	57	0	478
6.6.1	win	2022-12-14	14:48:16	15:01:50	812717	62865e3456c142785cfad2a7	871904279	1	practice_slash	5	practice_slash	29	stimuli_target_circlediamonds.svg	stimuli_distractor_trianglediamonds.svg	4	yes	53	1	937
6.6.1	win	2022-12-14	14:48:16	15:01:50	812717	62865e3456c142785cfad2a7	871904279	1	practice_slash	5	advance_on_keypress_SLASH	30	stimuli_target_circlediamonds.svg	stimuli_distractor_trianglediamonds.svg	4	yes	57	0	603
6.6.1	win	2022-12-14	14:48:16	15:01:54	816365	62865e3456c142785cfad2a7	871904279	1	practice_slash	5	practice_slash	31	stimuli_distractor_trianglediamonds.svg	stimuli_target_diamondcircles.svg	12	yes	53	1	1402
6.6.1	win	2022-12-14	14:48:16	15:01:54	816365	62865e3456c142785cfad2a7	871904279	1	practice_slash	5	advance_on_keypress_SLASH	32	stimuli_distractor_trianglediamonds.svg	stimuli_target_diamondcircles.svg	12	yes	57	0	505
6.6.1	win	2022-12-14	14:48:16	15:02:07	829481	62865e3456c142785cfad2a7	871904279	1	main_slash	7	main_slash	1	stimuli_target_trianglesquares.svg	stimuli_distractor_trianglediamonds.svg	18	yes	53	1	855
6.6.1	win	2022-12-14	14:48:16	15:02:07	829481	62865e3456c142785cfad2a7	871904279	1	main_slash	7	advance_on_keypress_SLASH	2	stimuli_target_trianglesquares.svg	stimuli_distractor_trianglediamonds.svg	18	yes	57	0	1061
6.6.1	win	2022-12-14	14:48:16	15:02:10	832665	62865e3456c142785cfad2a7	871904279	1	main_slash	7	main_slash	3	stimuli_distractor_diamondtriangles.svg	stimuli_distractor_diamondtriangles.svg	39	no	53	0	1473
6.6.1	win	2022-12-14	14:48:16	15:02:10	832665	62865e3456c142785cfad2a7	871904279	1	main_slash	7	advance_on_keypress_SLASH	4	stimuli_distractor_diamondtriangles.svg	stimuli_distractor_diamondtriangles.svg	39	no	57	0	662
6.6.1	win	2022-12-14	14:48:16	15:02:13	835975	62865e3456c142785cfad2a7	871904279	1	main_slash	7	main_slash	5	stimuli_distractor_trianglediamonds.svg	stimuli_distractor_diamondtriangles.svg	36	no	0	1	2000
6.6.1	win	2022-12-14	14:48:16	15:02:13	835975	62865e3456c142785cfad2a7	871904279	1	main_slash	7	advance_on_keypress_SLASH	6	stimuli_distractor_trianglediamonds.svg	stimuli_distractor_diamondtriangles.svg	36	no	57	0	729
6.6.1	win	2022-12-14	14:48:16	15:02:15	838040	62865e3456c142785cfad2a7	871904279	1	main_slash	7	main_slash	7	stimuli_target_trianglesquares.svg	stimuli_distractor_diamondtriangles.svg	22	yes	53	1	682
6.6.1	win	2022-12-14	14:48:16	15:02:15	838040	62865e3456c142785cfad2a7	871904279	1	main_slash	7	advance_on_keypress_SLASH	8	stimuli_target_trianglesquares.svg	stimuli_distractor_diamondtriangles.svg	22	yes	57	0	886
6.6.1	win	2022-12-14	14:48:16	15:02:18	840528	62865e3456c142785cfad2a7	871904279	1	main_slash	7	main_slash	9	stimuli_distractor_diamondtriangles.svg	stimuli_target_diamondcircles.svg	31	yes	53	1	954
6.6.1	win	2022-12-14	14:48:16	15:02:18	840528	62865e3456c142785cfad2a7	871904279	1	main_slash	7	advance_on_keypress_SLASH	10	stimuli_distractor_diamondtriangles.svg	stimuli_target_diamondcircles.svg	31	yes	57	0	571
6.6.1	win	2022-12-14	14:48:16	15:02:20	842657	62865e3456c142785cfad2a7	871904279	1	main_slash	7	main_slash	11	stimuli_distractor_trianglediamonds.svg	stimuli_target_diamondsquares.svg	28	yes	53	1	915
6.6.1	win	2022-12-14	14:48:16	15:02:20	842657	62865e3456c142785cfad2a7	871904279	1	main_slash	7	advance_on_keypress_SLASH	12	stimuli_distractor_trianglediamonds.svg	stimuli_target_diamondsquares.svg	28	yes	57	0	478
6.6.1	win	2022-12-14	14:48:16	15:02:22	844673	62865e3456c142785cfad2a7	871904279	1	main_slash	7	main_slash	13	stimuli_target_circlediamonds.svg	stimuli_distractor_trianglediamonds.svg	2	yes	53	1	881
6.6.1	win	2022-12-14	14:48:16	15:02:22	844673	62865e3456c142785cfad2a7	871904279	1	main_slash	7	advance_on_keypress_SLASH	14	stimuli_target_circlediamonds.svg	stimuli_distractor_trianglediamonds.svg	2	yes	57	0	445
6.6.1	win	2022-12-14	14:48:16	15:02:25	847775	62865e3456c142785cfad2a7	871904279	1	main_slash	7	main_slash	15	stimuli_distractor_trianglediamonds.svg	stimuli_distractor_trianglediamonds.svg	34	no	0	1	2000
6.6.1	win	2022-12-14	14:48:16	15:02:25	847775	62865e3456c142785cfad2a7	871904279	1	main_slash	7	advance_on_keypress_SLASH	16	stimuli_distractor_trianglediamonds.svg	stimuli_distractor_trianglediamonds.svg	34	no	57	0	689
6.6.1	win	2022-12-14	14:48:16	15:02:29	851108	62865e3456c142785cfad2a7	871904279	1	main_slash	7	main_slash	17	stimuli_distractor_diamondtriangles.svg	stimuli_distractor_trianglediamonds.svg	38	no	0	1	2000
6.6.1	win	2022-12-14	14:48:16	15:02:29	851108	62865e3456c142785cfad2a7	871904279	1	main_slash	7	advance_on_keypress_SLASH	18	stimuli_distractor_diamondtriangles.svg	stimuli_distractor_trianglediamonds.svg	38	no	57	0	531
6.6.1	win	2022-12-14	14:48:16	15:02:31	853320	62865e3456c142785cfad2a7	871904279	1	main_slash	7	main_slash	19	stimuli_target_circletriangles.svg	stimuli_distractor_trianglediamonds.svg	1	yes	53	1	1029
6.6.1	win	2022-12-14	14:48:16	15:02:31	853320	62865e3456c142785cfad2a7	871904279	1	main_slash	7	advance_on_keypress_SLASH	20	stimuli_target_circletriangles.svg	stimuli_distractor_trianglediamonds.svg	1	yes	57	0	818
6.6.1	win	2022-12-14	14:48:16	15:02:33	855528	62865e3456c142785cfad2a7	871904279	1	main_slash	7	main_slash	21	stimuli_target_squarediamonds.svg	stimuli_distractor_trianglediamonds.svg	4	yes	53	1	736
6.6.1	win	2022-12-14	14:48:16	15:02:33	855528	62865e3456c142785cfad2a7	871904279	1	main_slash	7	advance_on_keypress_SLASH	22	stimuli_target_squarediamonds.svg	stimuli_distractor_trianglediamonds.svg	4	yes	57	0	570
6.6.1	win	2022-12-14	14:48:16	15:02:36	858742	62865e3456c142785cfad2a7	871904279	1	main_slash	7	main_slash	23	stimuli_distractor_trianglediamonds.svg	stimuli_distractor_trianglediamonds.svg	33	no	0	1	2000
6.6.1	win	2022-12-14	14:48:16	15:02:36	858742	62865e3456c142785cfad2a7	871904279	1	main_slash	7	advance_on_keypress_SLASH	24	stimuli_distractor_trianglediamonds.svg	stimuli_distractor_trianglediamonds.svg	33	no	57	0	450
6.6.1	win	2022-12-14	14:48:16	15:02:38	861024	62865e3456c142785cfad2a7	871904279	1	main_slash	7	main_slash	25	stimuli_target_diamondsquares.svg	stimuli_distractor_diamondtriangles.svg	24	yes	53	1	1182
6.6.1	win	2022-12-14	14:48:16	15:02:38	861024	62865e3456c142785cfad2a7	871904279	1	main_slash	7	advance_on_keypress_SLASH	26	stimuli_target_diamondsquares.svg	stimuli_distractor_diamondtriangles.svg	24	yes	57	0	598
6.6.1	win	2022-12-14	14:48:16	15:02:41	863960	62865e3456c142785cfad2a7	871904279	1	main_slash	7	main_slash	27	stimuli_distractor_trianglediamonds.svg	stimuli_distractor_diamondtriangles.svg	35	no	53	0	1685
6.6.1	win	2022-12-14	14:48:16	15:02:41	863960	62865e3456c142785cfad2a7	871904279	1	main_slash	7	advance_on_keypress_SLASH	28	stimuli_distractor_trianglediamonds.svg	stimuli_distractor_diamondtriangles.svg	35	no	57	0	681
6.6.1	win	2022-12-14	14:48:16	15:02:44	866064	62865e3456c142785cfad2a7	871904279	1	main_slash	7	main_slash	29	stimuli_distractor_trianglediamonds.svg	stimuli_target_diamondcircles.svg	27	yes	53	1	772
6.6.1	win	2022-12-14	14:48:16	15:02:44	866064	62865e3456c142785cfad2a7	871904279	1	main_slash	7	advance_on_keypress_SLASH	30	stimuli_distractor_trianglediamonds.svg	stimuli_target_diamondcircles.svg	27	yes	57	0	397
6.6.1	win	2022-12-14	14:48:16	15:02:45	867856	62865e3456c142785cfad2a7	871904279	1	main_slash	7	main_slash	31	stimuli_target_circlediamonds.svg	stimuli_distractor_diamondtriangles.svg	6	yes	53	1	748
6.6.1	win	2022-12-14	14:48:16	15:02:45	867856	62865e3456c142785cfad2a7	871904279	1	main_slash	7	advance_on_keypress_SLASH	32	stimuli_target_circlediamonds.svg	stimuli_distractor_diamondtriangles.svg	6	yes	57	0	445
6.6.1	win	2022-12-14	14:48:16	15:02:47	869832	62865e3456c142785cfad2a7	871904279	1	main_slash	7	main_slash	33	stimuli_distractor_trianglediamonds.svg	stimuli_target_squaretriangles.svg	11	yes	53	1	874
6.6.1	win	2022-12-14	14:48:16	15:02:47	869832	62865e3456c142785cfad2a7	871904279	1	main_slash	7	advance_on_keypress_SLASH	34	stimuli_distractor_trianglediamonds.svg	stimuli_target_squaretriangles.svg	11	yes	57	0	374
6.6.1	win	2022-12-14	14:48:16	15:02:49	871680	62865e3456c142785cfad2a7	871904279	1	main_slash	7	main_slash	35	stimuli_target_diamondcircles.svg	stimuli_distractor_diamondtriangles.svg	23	yes	53	1	838
6.6.1	win	2022-12-14	14:48:16	15:02:49	871680	62865e3456c142785cfad2a7	871904279	1	main_slash	7	advance_on_keypress_SLASH	36	stimuli_target_diamondcircles.svg	stimuli_distractor_diamondtriangles.svg	23	yes	57	0	356
6.6.1	win	2022-12-14	14:48:16	15:02:52	874675	62865e3456c142785cfad2a7	871904279	1	main_slash	7	main_slash	37	stimuli_distractor_diamondtriangles.svg	stimuli_distractor_trianglediamonds.svg	37	no	0	1	2000
6.6.1	win	2022-12-14	14:48:16	15:02:52	874675	62865e3456c142785cfad2a7	871904279	1	main_slash	7	advance_on_keypress_SLASH	38	stimuli_distractor_diamondtriangles.svg	stimuli_distractor_trianglediamonds.svg	37	no	57	0	636
6.6.1	win	2022-12-14	14:48:16	15:02:54	876528	62865e3456c142785cfad2a7	871904279	1	main_slash	7	main_slash	39	stimuli_distractor_diamondtriangles.svg	stimuli_target_circlediamonds.svg	14	yes	53	1	570
6.6.1	win	2022-12-14	14:48:16	15:02:54	876528	62865e3456c142785cfad2a7	871904279	1	main_slash	7	advance_on_keypress_SLASH	40	stimuli_distractor_diamondtriangles.svg	stimuli_target_circlediamonds.svg	14	yes	57	0	490
6.6.1	win	2022-12-14	14:48:16	15:02:56	878416	62865e3456c142785cfad2a7	871904279	1	main_slash	7	main_slash	41	stimuli_target_trianglecircles.svg	stimuli_distractor_diamondtriangles.svg	21	yes	53	1	758
6.6.1	win	2022-12-14	14:48:16	15:02:56	878416	62865e3456c142785cfad2a7	871904279	1	main_slash	7	advance_on_keypress_SLASH	42	stimuli_target_trianglecircles.svg	stimuli_distractor_diamondtriangles.svg	21	yes	57	0	423
6.6.1	win	2022-12-14	14:48:16	15:02:58	880280	62865e3456c142785cfad2a7	871904279	1	main_slash	7	main_slash	43	stimuli_distractor_diamondtriangles.svg	stimuli_target_trianglecircles.svg	29	yes	53	1	805
6.6.1	win	2022-12-14	14:48:16	15:02:58	880280	62865e3456c142785cfad2a7	871904279	1	main_slash	7	advance_on_keypress_SLASH	44	stimuli_distractor_diamondtriangles.svg	stimuli_target_trianglecircles.svg	29	yes	57	0	372
6.6.1	win	2022-12-14	14:48:16	15:03:01	883292	62865e3456c142785cfad2a7	871904279	1	main_slash	7	main_slash	45	stimuli_distractor_diamondtriangles.svg	stimuli_distractor_diamondtriangles.svg	40	no	0	1	2000
6.6.1	win	2022-12-14	14:48:16	15:03:01	883292	62865e3456c142785cfad2a7	871904279	1	main_slash	7	advance_on_keypress_SLASH	46	stimuli_distractor_diamondtriangles.svg	stimuli_distractor_diamondtriangles.svg	40	no	57	0	492
6.6.1	win	2022-12-14	14:48:16	15:03:03	885168	62865e3456c142785cfad2a7	871904279	1	main_slash	7	main_slash	47	stimuli_distractor_diamondtriangles.svg	stimuli_target_circletriangles.svg	13	yes	53	1	743
6.6.1	win	2022-12-14	14:48:16	15:03:03	885168	62865e3456c142785cfad2a7	871904279	1	main_slash	7	advance_on_keypress_SLASH	48	stimuli_distractor_diamondtriangles.svg	stimuli_target_circletriangles.svg	13	yes	57	0	432
6.6.1	win	2022-12-14	14:48:16	15:03:04	887048	62865e3456c142785cfad2a7	871904279	1	main_slash	7	main_slash	49	stimuli_distractor_diamondtriangles.svg	stimuli_target_squaretriangles.svg	15	yes	53	1	790
6.6.1	win	2022-12-14	14:48:16	15:03:04	887048	62865e3456c142785cfad2a7	871904279	1	main_slash	7	advance_on_keypress_SLASH	50	stimuli_distractor_diamondtriangles.svg	stimuli_target_squaretriangles.svg	15	yes	57	0	374
6.6.1	win	2022-12-14	14:48:16	15:03:06	888944	62865e3456c142785cfad2a7	871904279	1	main_slash	7	main_slash	51	stimuli_distractor_trianglediamonds.svg	stimuli_target_trianglecircles.svg	25	yes	53	1	886
6.6.1	win	2022-12-14	14:48:16	15:03:06	888944	62865e3456c142785cfad2a7	871904279	1	main_slash	7	advance_on_keypress_SLASH	52	stimuli_distractor_trianglediamonds.svg	stimuli_target_trianglecircles.svg	25	yes	57	0	562
6.6.1	win	2022-12-14	14:48:16	15:03:08	890952	62865e3456c142785cfad2a7	871904279	1	main_slash	7	main_slash	53	stimuli_distractor_trianglediamonds.svg	stimuli_target_squarediamonds.svg	12	yes	53	1	794
6.6.1	win	2022-12-14	14:48:16	15:03:08	890952	62865e3456c142785cfad2a7	871904279	1	main_slash	7	advance_on_keypress_SLASH	54	stimuli_distractor_trianglediamonds.svg	stimuli_target_squarediamonds.svg	12	yes	57	0	401
6.6.1	win	2022-12-14	14:48:16	15:03:10	892784	62865e3456c142785cfad2a7	871904279	1	main_slash	7	main_slash	55	stimuli_distractor_diamondtriangles.svg	stimuli_target_trianglesquares.svg	30	yes	53	1	776
6.6.1	win	2022-12-14	14:48:16	15:03:10	892784	62865e3456c142785cfad2a7	871904279	1	main_slash	7	advance_on_keypress_SLASH	56	stimuli_distractor_diamondtriangles.svg	stimuli_target_trianglesquares.svg	30	yes	57	0	385
6.6.1	win	2022-12-14	14:48:16	15:03:13	895344	62865e3456c142785cfad2a7	871904279	1	main_slash	7	main_slash	57	stimuli_target_diamondsquares.svg	stimuli_distractor_trianglediamonds.svg	20	yes	53	1	1536
6.6.1	win	2022-12-14	14:48:16	15:03:13	895344	62865e3456c142785cfad2a7	871904279	1	main_slash	7	advance_on_keypress_SLASH	58	stimuli_target_diamondsquares.svg	stimuli_distractor_trianglediamonds.svg	20	yes	57	0	394
6.6.1	win	2022-12-14	14:48:16	15:03:15	897160	62865e3456c142785cfad2a7	871904279	1	main_slash	7	main_slash	59	stimuli_target_circletriangles.svg	stimuli_distractor_diamondtriangles.svg	5	yes	53	1	769
6.6.1	win	2022-12-14	14:48:16	15:03:15	897160	62865e3456c142785cfad2a7	871904279	1	main_slash	7	advance_on_keypress_SLASH	60	stimuli_target_circletriangles.svg	stimuli_distractor_diamondtriangles.svg	5	yes	57	0	377
6.6.1	win	2022-12-14	14:48:16	15:03:16	898976	62865e3456c142785cfad2a7	871904279	1	main_slash	7	main_slash	61	stimuli_distractor_trianglediamonds.svg	stimuli_target_circlediamonds.svg	10	yes	53	1	785
6.6.1	win	2022-12-14	14:48:16	15:03:16	898976	62865e3456c142785cfad2a7	871904279	1	main_slash	7	advance_on_keypress_SLASH	62	stimuli_distractor_trianglediamonds.svg	stimuli_target_circlediamonds.svg	10	yes	57	0	361
6.6.1	win	2022-12-14	14:48:16	15:03:19	901392	62865e3456c142785cfad2a7	871904279	1	main_slash	7	main_slash	63	stimuli_target_diamondcircles.svg	stimuli_distractor_trianglediamonds.svg	19	yes	53	1	1401
6.6.1	win	2022-12-14	14:48:16	15:03:19	901392	62865e3456c142785cfad2a7	871904279	1	main_slash	7	advance_on_keypress_SLASH	64	stimuli_target_diamondcircles.svg	stimuli_distractor_trianglediamonds.svg	19	yes	57	0	392
6.6.1	win	2022-12-14	14:48:16	15:03:21	903896	62865e3456c142785cfad2a7	871904279	1	main_slash	7	main_slash	65	stimuli_distractor_trianglediamonds.svg	stimuli_target_trianglesquares.svg	26	yes	53	1	1471
6.6.1	win	2022-12-14	14:48:16	15:03:21	903896	62865e3456c142785cfad2a7	871904279	1	main_slash	7	advance_on_keypress_SLASH	66	stimuli_distractor_trianglediamonds.svg	stimuli_target_trianglesquares.svg	26	yes	57	0	340
6.6.1	win	2022-12-14	14:48:16	15:03:23	905808	62865e3456c142785cfad2a7	871904279	1	main_slash	7	main_slash	67	stimuli_target_squaretriangles.svg	stimuli_distractor_trianglediamonds.svg	3	yes	53	1	933
6.6.1	win	2022-12-14	14:48:16	15:03:23	905808	62865e3456c142785cfad2a7	871904279	1	main_slash	7	advance_on_keypress_SLASH	68	stimuli_target_squaretriangles.svg	stimuli_distractor_trianglediamonds.svg	3	yes	57	0	359
6.6.1	win	2022-12-14	14:48:16	15:03:25	907856	62865e3456c142785cfad2a7	871904279	1	main_slash	7	main_slash	69	stimuli_distractor_diamondtriangles.svg	stimuli_target_diamondsquares.svg	32	yes	53	1	1048
6.6.1	win	2022-12-14	14:48:16	15:03:25	907856	62865e3456c142785cfad2a7	871904279	1	main_slash	7	advance_on_keypress_SLASH	70	stimuli_distractor_diamondtriangles.svg	stimuli_target_diamondsquares.svg	32	yes	57	0	269
6.6.1	win	2022-12-14	14:48:16	15:03:27	909576	62865e3456c142785cfad2a7	871904279	1	main_slash	7	main_slash	71	stimuli_distractor_diamondtriangles.svg	stimuli_target_squarediamonds.svg	16	yes	53	1	801
6.6.1	win	2022-12-14	14:48:16	15:03:27	909576	62865e3456c142785cfad2a7	871904279	1	main_slash	7	advance_on_keypress_SLASH	72	stimuli_distractor_diamondtriangles.svg	stimuli_target_squarediamonds.svg	16	yes	57	0	361
6.6.1	win	2022-12-14	14:48:16	15:03:29	911440	62865e3456c142785cfad2a7	871904279	1	main_slash	7	main_slash	73	stimuli_target_trianglecircles.svg	stimuli_distractor_trianglediamonds.svg	17	yes	53	1	849
6.6.1	win	2022-12-14	14:48:16	15:03:29	911440	62865e3456c142785cfad2a7	871904279	1	main_slash	7	advance_on_keypress_SLASH	74	stimuli_target_trianglecircles.svg	stimuli_distractor_trianglediamonds.svg	17	yes	57	0	334
6.6.1	win	2022-12-14	14:48:16	15:03:31	913256	62865e3456c142785cfad2a7	871904279	1	main_slash	7	main_slash	75	stimuli_distractor_trianglediamonds.svg	stimuli_target_circletriangles.svg	9	yes	53	1	831
6.6.1	win	2022-12-14	14:48:16	15:03:31	913256	62865e3456c142785cfad2a7	871904279	1	main_slash	7	advance_on_keypress_SLASH	76	stimuli_distractor_trianglediamonds.svg	stimuli_target_circletriangles.svg	9	yes	57	0	341
6.6.1	win	2022-12-14	14:48:16	15:03:32	915015	62865e3456c142785cfad2a7	871904279	1	main_slash	7	main_slash	77	stimuli_target_squarediamonds.svg	stimuli_distractor_diamondtriangles.svg	8	yes	53	1	775
6.6.1	win	2022-12-14	14:48:16	15:03:32	915015	62865e3456c142785cfad2a7	871904279	1	main_slash	7	advance_on_keypress_SLASH	78	stimuli_target_squarediamonds.svg	stimuli_distractor_diamondtriangles.svg	8	yes	57	0	343
6.6.1	win	2022-12-14	14:48:16	15:03:34	916784	62865e3456c142785cfad2a7	871904279	1	main_slash	7	main_slash	79	stimuli_target_squaretriangles.svg	stimuli_distractor_diamondtriangles.svg	7	yes	53	1	793
6.6.1	win	2022-12-14	14:48:16	15:03:34	916784	62865e3456c142785cfad2a7	871904279	1	main_slash	7	advance_on_keypress_SLASH	80	stimuli_target_squaretriangles.svg	stimuli_distractor_diamondtriangles.svg	7	yes	57	0	337
6.6.1	win	2022-12-14	14:48:16	15:03:36	918615	62865e3456c142785cfad2a7	871904279	1	main_slash	7	main_slash	81	stimuli_distractor_trianglediamonds.svg	stimuli_target_squarediamonds.svg	12	yes	53	1	858
6.6.1	win	2022-12-14	14:48:16	15:03:36	918615	62865e3456c142785cfad2a7	871904279	1	main_slash	7	advance_on_keypress_SLASH	82	stimuli_distractor_trianglediamonds.svg	stimuli_target_squarediamonds.svg	12	yes	57	0	320
6.6.1	win	2022-12-14	14:48:16	15:03:39	921574	62865e3456c142785cfad2a7	871904279	1	main_slash	7	main_slash	83	stimuli_distractor_trianglediamonds.svg	stimuli_distractor_trianglediamonds.svg	33	no	0	1	2000
6.6.1	win	2022-12-14	14:48:16	15:03:39	921574	62865e3456c142785cfad2a7	871904279	1	main_slash	7	advance_on_keypress_SLASH	84	stimuli_distractor_trianglediamonds.svg	stimuli_distractor_trianglediamonds.svg	33	no	57	0	441
6.6.1	win	2022-12-14	14:48:16	15:03:42	924658	62865e3456c142785cfad2a7	871904279	1	main_slash	7	main_slash	85	stimuli_distractor_trianglediamonds.svg	stimuli_distractor_diamondtriangles.svg	36	no	0	1	2000
6.6.1	win	2022-12-14	14:48:16	15:03:42	924658	62865e3456c142785cfad2a7	871904279	1	main_slash	7	advance_on_keypress_SLASH	86	stimuli_distractor_trianglediamonds.svg	stimuli_distractor_diamondtriangles.svg	36	no	57	0	446
6.6.1	win	2022-12-14	14:48:16	15:03:45	927758	62865e3456c142785cfad2a7	871904279	1	main_slash	7	main_slash	87	stimuli_distractor_trianglediamonds.svg	stimuli_distractor_diamondtriangles.svg	35	no	0	1	2000
6.6.1	win	2022-12-14	14:48:16	15:03:45	927758	62865e3456c142785cfad2a7	871904279	1	main_slash	7	advance_on_keypress_SLASH	88	stimuli_distractor_trianglediamonds.svg	stimuli_distractor_diamondtriangles.svg	35	no	57	0	482
6.6.1	win	2022-12-14	14:48:16	15:03:47	929791	62865e3456c142785cfad2a7	871904279	1	main_slash	7	main_slash	89	stimuli_target_diamondcircles.svg	stimuli_distractor_diamondtriangles.svg	23	yes	53	1	901
6.6.1	win	2022-12-14	14:48:16	15:03:47	929791	62865e3456c142785cfad2a7	871904279	1	main_slash	7	advance_on_keypress_SLASH	90	stimuli_target_diamondcircles.svg	stimuli_distractor_diamondtriangles.svg	23	yes	57	0	504
6.6.1	win	2022-12-14	14:48:16	15:03:49	931687	62865e3456c142785cfad2a7	871904279	1	main_slash	7	main_slash	91	stimuli_target_squaretriangles.svg	stimuli_distractor_diamondtriangles.svg	7	yes	53	1	747
6.6.1	win	2022-12-14	14:48:16	15:03:49	931687	62865e3456c142785cfad2a7	871904279	1	main_slash	7	advance_on_keypress_SLASH	92	stimuli_target_squaretriangles.svg	stimuli_distractor_diamondtriangles.svg	7	yes	57	0	324
6.6.1	win	2022-12-14	14:48:16	15:03:52	934657	62865e3456c142785cfad2a7	871904279	1	main_slash	7	main_slash	93	stimuli_distractor_diamondtriangles.svg	stimuli_distractor_trianglediamonds.svg	38	no	0	1	2000
6.6.1	win	2022-12-14	14:48:16	15:03:52	934657	62865e3456c142785cfad2a7	871904279	1	main_slash	7	advance_on_keypress_SLASH	94	stimuli_distractor_diamondtriangles.svg	stimuli_distractor_trianglediamonds.svg	38	no	57	0	526
6.6.1	win	2022-12-14	14:48:16	15:03:54	936616	62865e3456c142785cfad2a7	871904279	1	main_slash	7	main_slash	95	stimuli_distractor_diamondtriangles.svg	stimuli_target_circletriangles.svg	13	yes	53	1	792
6.6.1	win	2022-12-14	14:48:16	15:03:54	936616	62865e3456c142785cfad2a7	871904279	1	main_slash	7	advance_on_keypress_SLASH	96	stimuli_distractor_diamondtriangles.svg	stimuli_target_circletriangles.svg	13	yes	57	0	496
6.6.1	win	2022-12-14	14:48:16	15:03:57	939757	62865e3456c142785cfad2a7	871904279	1	main_slash	7	main_slash	97	stimuli_distractor_diamondtriangles.svg	stimuli_distractor_diamondtriangles.svg	40	no	0	1	2000
6.6.1	win	2022-12-14	14:48:16	15:03:57	939757	62865e3456c142785cfad2a7	871904279	1	main_slash	7	advance_on_keypress_SLASH	98	stimuli_distractor_diamondtriangles.svg	stimuli_distractor_diamondtriangles.svg	40	no	57	0	617
6.6.1	win	2022-12-14	14:48:16	15:03:59	941855	62865e3456c142785cfad2a7	871904279	1	main_slash	7	main_slash	99	stimuli_distractor_diamondtriangles.svg	stimuli_target_squarediamonds.svg	16	yes	53	1	832
6.6.1	win	2022-12-14	14:48:16	15:03:59	941855	62865e3456c142785cfad2a7	871904279	1	main_slash	7	advance_on_keypress_SLASH	100	stimuli_distractor_diamondtriangles.svg	stimuli_target_squarediamonds.svg	16	yes	57	0	341
6.6.1	win	2022-12-14	14:48:16	15:04:01	943671	62865e3456c142785cfad2a7	871904279	1	main_slash	7	main_slash	101	stimuli_target_trianglecircles.svg	stimuli_distractor_diamondtriangles.svg	21	yes	53	1	830
6.6.1	win	2022-12-14	14:48:16	15:04:01	943671	62865e3456c142785cfad2a7	871904279	1	main_slash	7	advance_on_keypress_SLASH	102	stimuli_target_trianglecircles.svg	stimuli_distractor_diamondtriangles.svg	21	yes	57	0	300
6.6.1	win	2022-12-14	14:48:16	15:04:03	945423	62865e3456c142785cfad2a7	871904279	1	main_slash	7	main_slash	103	stimuli_distractor_trianglediamonds.svg	stimuli_target_circletriangles.svg	9	yes	53	1	800
6.6.1	win	2022-12-14	14:48:16	15:04:03	945423	62865e3456c142785cfad2a7	871904279	1	main_slash	7	advance_on_keypress_SLASH	104	stimuli_distractor_trianglediamonds.svg	stimuli_target_circletriangles.svg	9	yes	57	0	334
6.6.1	win	2022-12-14	14:48:16	15:04:05	947167	62865e3456c142785cfad2a7	871904279	1	main_slash	7	main_slash	105	stimuli_distractor_trianglediamonds.svg	stimuli_target_diamondcircles.svg	27	yes	53	1	759
6.6.1	win	2022-12-14	14:48:16	15:04:05	947167	62865e3456c142785cfad2a7	871904279	1	main_slash	7	advance_on_keypress_SLASH	106	stimuli_distractor_trianglediamonds.svg	stimuli_target_diamondcircles.svg	27	yes	57	0	305
6.6.1	win	2022-12-14	14:48:16	15:04:06	948911	62865e3456c142785cfad2a7	871904279	1	main_slash	7	main_slash	107	stimuli_target_squaretriangles.svg	stimuli_distractor_trianglediamonds.svg	3	yes	53	1	804
6.6.1	win	2022-12-14	14:48:16	15:04:06	948911	62865e3456c142785cfad2a7	871904279	1	main_slash	7	advance_on_keypress_SLASH	108	stimuli_target_squaretriangles.svg	stimuli_distractor_trianglediamonds.svg	3	yes	57	0	339
6.6.1	win	2022-12-14	14:48:16	15:04:08	950671	62865e3456c142785cfad2a7	871904279	1	main_slash	7	main_slash	109	stimuli_distractor_diamondtriangles.svg	stimuli_target_circlediamonds.svg	14	yes	53	1	780
6.6.1	win	2022-12-14	14:48:16	15:04:08	950671	62865e3456c142785cfad2a7	871904279	1	main_slash	7	advance_on_keypress_SLASH	110	stimuli_distractor_diamondtriangles.svg	stimuli_target_circlediamonds.svg	14	yes	57	0	324
6.6.1	win	2022-12-14	14:48:16	15:04:10	952463	62865e3456c142785cfad2a7	871904279	1	main_slash	7	main_slash	111	stimuli_target_diamondsquares.svg	stimuli_distractor_diamondtriangles.svg	24	yes	53	1	822
6.6.1	win	2022-12-14	14:48:16	15:04:10	952463	62865e3456c142785cfad2a7	871904279	1	main_slash	7	advance_on_keypress_SLASH	112	stimuli_target_diamondsquares.svg	stimuli_distractor_diamondtriangles.svg	24	yes	57	0	261
6.6.1	win	2022-12-14	14:48:16	15:04:12	954207	62865e3456c142785cfad2a7	871904279	1	main_slash	7	main_slash	113	stimuli_target_circlediamonds.svg	stimuli_distractor_trianglediamonds.svg	2	yes	53	1	833
6.6.1	win	2022-12-14	14:48:16	15:04:12	954207	62865e3456c142785cfad2a7	871904279	1	main_slash	7	advance_on_keypress_SLASH	114	stimuli_target_circlediamonds.svg	stimuli_distractor_trianglediamonds.svg	2	yes	57	0	351
6.6.1	win	2022-12-14	14:48:16	15:04:13	956047	62865e3456c142785cfad2a7	871904279	1	main_slash	7	main_slash	115	stimuli_target_squarediamonds.svg	stimuli_distractor_diamondtriangles.svg	8	yes	53	1	840
6.6.1	win	2022-12-14	14:48:16	15:04:13	956047	62865e3456c142785cfad2a7	871904279	1	main_slash	7	advance_on_keypress_SLASH	116	stimuli_target_squarediamonds.svg	stimuli_distractor_diamondtriangles.svg	8	yes	57	0	302
6.6.1	win	2022-12-14	14:48:16	15:04:15	957855	62865e3456c142785cfad2a7	871904279	1	main_slash	7	main_slash	117	stimuli_distractor_trianglediamonds.svg	stimuli_target_trianglecircles.svg	25	yes	53	1	864
6.6.1	win	2022-12-14	14:48:16	15:04:15	957855	62865e3456c142785cfad2a7	871904279	1	main_slash	7	advance_on_keypress_SLASH	118	stimuli_distractor_trianglediamonds.svg	stimuli_target_trianglecircles.svg	25	yes	57	0	341
6.6.1	win	2022-12-14	14:48:16	15:04:18	960841	62865e3456c142785cfad2a7	871904279	1	main_slash	7	main_slash	119	stimuli_distractor_diamondtriangles.svg	stimuli_distractor_diamondtriangles.svg	39	no	0	1	2000
6.6.1	win	2022-12-14	14:48:16	15:04:18	960841	62865e3456c142785cfad2a7	871904279	1	main_slash	7	advance_on_keypress_SLASH	120	stimuli_distractor_diamondtriangles.svg	stimuli_distractor_diamondtriangles.svg	39	no	57	0	510
6.6.1	win	2022-12-14	14:48:16	15:04:20	962799	62865e3456c142785cfad2a7	871904279	1	main_slash	7	main_slash	121	stimuli_distractor_diamondtriangles.svg	stimuli_target_trianglecircles.svg	29	yes	53	1	808
6.6.1	win	2022-12-14	14:48:16	15:04:20	962799	62865e3456c142785cfad2a7	871904279	1	main_slash	7	advance_on_keypress_SLASH	122	stimuli_distractor_diamondtriangles.svg	stimuli_target_trianglecircles.svg	29	yes	57	0	312
6.6.1	win	2022-12-14	14:48:16	15:04:22	964583	62865e3456c142785cfad2a7	871904279	1	main_slash	7	main_slash	123	stimuli_target_trianglesquares.svg	stimuli_distractor_diamondtriangles.svg	22	yes	53	1	826
6.6.1	win	2022-12-14	14:48:16	15:04:22	964583	62865e3456c142785cfad2a7	871904279	1	main_slash	7	advance_on_keypress_SLASH	124	stimuli_target_trianglesquares.svg	stimuli_distractor_diamondtriangles.svg	22	yes	57	0	368
6.6.1	win	2022-12-14	14:48:16	15:04:24	966423	62865e3456c142785cfad2a7	871904279	1	main_slash	7	main_slash	125	stimuli_target_circletriangles.svg	stimuli_distractor_diamondtriangles.svg	5	yes	53	1	832
6.6.1	win	2022-12-14	14:48:16	15:04:24	966423	62865e3456c142785cfad2a7	871904279	1	main_slash	7	advance_on_keypress_SLASH	126	stimuli_target_circletriangles.svg	stimuli_distractor_diamondtriangles.svg	5	yes	57	0	342
6.6.1	win	2022-12-14	14:48:16	15:04:26	968311	62865e3456c142785cfad2a7	871904279	1	main_slash	7	main_slash	127	stimuli_distractor_diamondtriangles.svg	stimuli_target_squaretriangles.svg	15	yes	53	1	904
6.6.1	win	2022-12-14	14:48:16	15:04:26	968311	62865e3456c142785cfad2a7	871904279	1	main_slash	7	advance_on_keypress_SLASH	128	stimuli_distractor_diamondtriangles.svg	stimuli_target_squaretriangles.svg	15	yes	57	0	323
6.6.1	win	2022-12-14	14:48:16	15:04:29	971274	62865e3456c142785cfad2a7	871904279	1	main_slash	7	main_slash	129	stimuli_target_diamondsquares.svg	stimuli_distractor_trianglediamonds.svg	20	yes	0	0	2000
6.6.1	win	2022-12-14	14:48:16	15:04:29	971274	62865e3456c142785cfad2a7	871904279	1	main_slash	7	advance_on_keypress_SLASH	130	stimuli_target_diamondsquares.svg	stimuli_distractor_trianglediamonds.svg	20	yes	57	0	820
6.6.1	win	2022-12-14	14:48:16	15:04:31	973527	62865e3456c142785cfad2a7	871904279	1	main_slash	7	main_slash	131	stimuli_target_circlediamonds.svg	stimuli_distractor_diamondtriangles.svg	6	yes	53	1	786
6.6.1	win	2022-12-14	14:48:16	15:04:31	973527	62865e3456c142785cfad2a7	871904279	1	main_slash	7	advance_on_keypress_SLASH	132	stimuli_target_circlediamonds.svg	stimuli_distractor_diamondtriangles.svg	6	yes	57	0	379
6.6.1	win	2022-12-14	14:48:16	15:04:33	975759	62865e3456c142785cfad2a7	871904279	1	main_slash	7	main_slash	133	stimuli_distractor_trianglediamonds.svg	stimuli_target_trianglesquares.svg	26	yes	53	1	1202
6.6.1	win	2022-12-14	14:48:16	15:04:33	975759	62865e3456c142785cfad2a7	871904279	1	main_slash	7	advance_on_keypress_SLASH	134	stimuli_distractor_trianglediamonds.svg	stimuli_target_trianglesquares.svg	26	yes	57	0	425
6.6.1	win	2022-12-14	14:48:16	15:04:35	977639	62865e3456c142785cfad2a7	871904279	1	main_slash	7	main_slash	135	stimuli_target_trianglecircles.svg	stimuli_distractor_trianglediamonds.svg	17	yes	53	1	815
6.6.1	win	2022-12-14	14:48:16	15:04:35	977639	62865e3456c142785cfad2a7	871904279	1	main_slash	7	advance_on_keypress_SLASH	136	stimuli_target_trianglecircles.svg	stimuli_distractor_trianglediamonds.svg	17	yes	57	0	342
6.6.1	win	2022-12-14	14:48:16	15:04:37	979495	62865e3456c142785cfad2a7	871904279	1	main_slash	7	main_slash	137	stimuli_target_circletriangles.svg	stimuli_distractor_trianglediamonds.svg	1	yes	53	1	871
6.6.1	win	2022-12-14	14:48:16	15:04:37	979495	62865e3456c142785cfad2a7	871904279	1	main_slash	7	advance_on_keypress_SLASH	138	stimuli_target_circletriangles.svg	stimuli_distractor_trianglediamonds.svg	1	yes	57	0	332
6.6.1	win	2022-12-14	14:48:16	15:04:39	981319	62865e3456c142785cfad2a7	871904279	1	main_slash	7	main_slash	139	stimuli_distractor_trianglediamonds.svg	stimuli_target_circlediamonds.svg	10	yes	53	1	845
6.6.1	win	2022-12-14	14:48:16	15:04:39	981319	62865e3456c142785cfad2a7	871904279	1	main_slash	7	advance_on_keypress_SLASH	140	stimuli_distractor_trianglediamonds.svg	stimuli_target_circlediamonds.svg	10	yes	57	0	267
6.6.1	win	2022-12-14	14:48:16	15:04:41	983119	62865e3456c142785cfad2a7	871904279	1	main_slash	7	main_slash	141	stimuli_distractor_diamondtriangles.svg	stimuli_target_diamondcircles.svg	31	yes	53	1	879
6.6.1	win	2022-12-14	14:48:16	15:04:41	983119	62865e3456c142785cfad2a7	871904279	1	main_slash	7	advance_on_keypress_SLASH	142	stimuli_distractor_diamondtriangles.svg	stimuli_target_diamondcircles.svg	31	yes	57	0	291
6.6.1	win	2022-12-14	14:48:16	15:04:42	984983	62865e3456c142785cfad2a7	871904279	1	main_slash	7	main_slash	143	stimuli_target_trianglesquares.svg	stimuli_distractor_trianglediamonds.svg	18	yes	53	1	926
6.6.1	win	2022-12-14	14:48:16	15:04:42	984983	62865e3456c142785cfad2a7	871904279	1	main_slash	7	advance_on_keypress_SLASH	144	stimuli_target_trianglesquares.svg	stimuli_distractor_trianglediamonds.svg	18	yes	57	0	305
6.6.1	win	2022-12-14	14:48:16	15:04:44	986823	62865e3456c142785cfad2a7	871904279	1	main_slash	7	main_slash	145	stimuli_distractor_trianglediamonds.svg	stimuli_target_squaretriangles.svg	11	yes	53	1	899
6.6.1	win	2022-12-14	14:48:16	15:04:44	986823	62865e3456c142785cfad2a7	871904279	1	main_slash	7	advance_on_keypress_SLASH	146	stimuli_distractor_trianglediamonds.svg	stimuli_target_squaretriangles.svg	11	yes	57	0	319
6.6.1	win	2022-12-14	14:48:16	15:04:46	988631	62865e3456c142785cfad2a7	871904279	1	main_slash	7	main_slash	147	stimuli_target_squarediamonds.svg	stimuli_distractor_trianglediamonds.svg	4	yes	53	1	841
6.6.1	win	2022-12-14	14:48:16	15:04:46	988631	62865e3456c142785cfad2a7	871904279	1	main_slash	7	advance_on_keypress_SLASH	148	stimuli_target_squarediamonds.svg	stimuli_distractor_trianglediamonds.svg	4	yes	57	0	295
6.6.1	win	2022-12-14	14:48:16	15:04:49	991574	62865e3456c142785cfad2a7	871904279	1	main_slash	7	main_slash	149	stimuli_distractor_trianglediamonds.svg	stimuli_distractor_trianglediamonds.svg	34	no	0	1	2000
6.6.1	win	2022-12-14	14:48:16	15:04:49	991574	62865e3456c142785cfad2a7	871904279	1	main_slash	7	advance_on_keypress_SLASH	150	stimuli_distractor_trianglediamonds.svg	stimuli_distractor_trianglediamonds.svg	34	no	57	0	561
6.6.1	win	2022-12-14	14:48:16	15:04:51	993535	62865e3456c142785cfad2a7	871904279	1	main_slash	7	main_slash	151	stimuli_distractor_diamondtriangles.svg	stimuli_target_trianglesquares.svg	30	yes	53	1	745
6.6.1	win	2022-12-14	14:48:16	15:04:51	993535	62865e3456c142785cfad2a7	871904279	1	main_slash	7	advance_on_keypress_SLASH	152	stimuli_distractor_diamondtriangles.svg	stimuli_target_trianglesquares.svg	30	yes	57	0	362
6.6.1	win	2022-12-14	14:48:16	15:04:53	995463	62865e3456c142785cfad2a7	871904279	1	main_slash	7	main_slash	153	stimuli_distractor_diamondtriangles.svg	stimuli_target_diamondsquares.svg	32	yes	53	1	906
6.6.1	win	2022-12-14	14:48:16	15:04:53	995463	62865e3456c142785cfad2a7	871904279	1	main_slash	7	advance_on_keypress_SLASH	154	stimuli_distractor_diamondtriangles.svg	stimuli_target_diamondsquares.svg	32	yes	57	0	293
6.6.1	win	2022-12-14	14:48:16	15:04:55	997239	62865e3456c142785cfad2a7	871904279	1	main_slash	7	main_slash	155	stimuli_distractor_trianglediamonds.svg	stimuli_target_diamondsquares.svg	28	yes	53	1	849
6.6.1	win	2022-12-14	14:48:16	15:04:55	997239	62865e3456c142785cfad2a7	871904279	1	main_slash	7	advance_on_keypress_SLASH	156	stimuli_distractor_trianglediamonds.svg	stimuli_target_diamondsquares.svg	28	yes	57	0	278
6.6.1	win	2022-12-14	14:48:16	15:04:57	999071	62865e3456c142785cfad2a7	871904279	1	main_slash	7	main_slash	157	stimuli_target_diamondcircles.svg	stimuli_distractor_trianglediamonds.svg	19	yes	53	1	897
6.6.1	win	2022-12-14	14:48:16	15:04:57	999071	62865e3456c142785cfad2a7	871904279	1	main_slash	7	advance_on_keypress_SLASH	158	stimuli_target_diamondcircles.svg	stimuli_distractor_trianglediamonds.svg	19	yes	57	0	261
6.6.1	win	2022-12-14	14:48:16	15:04:59	1001973	62865e3456c142785cfad2a7	871904279	1	main_slash	7	main_slash	159	stimuli_distractor_diamondtriangles.svg	stimuli_distractor_trianglediamonds.svg	37	no	0	1	2000
6.6.1	win	2022-12-14	14:48:16	15:04:59	1001973	62865e3456c142785cfad2a7	871904279	1	main_slash	7	advance_on_keypress_SLASH	160	stimuli_distractor_diamondtriangles.svg	stimuli_distractor_trianglediamonds.svg	37	no	57	0	505
6.6.1	win	2022-12-14	14:48:16	15:05:25	1027818	62865e3456c142785cfad2a7	871904279	1	practice_z	9	practice_z	1	stimuli_distractor_trianglediamonds.svg	stimuli_distractor_diamondtriangles.svg	16	no	44	0	1192
6.6.1	win	2022-12-14	14:48:16	15:05:25	1027818	62865e3456c142785cfad2a7	871904279	1	practice_z	9	advance_on_keypress_ZEE	2	stimuli_distractor_trianglediamonds.svg	stimuli_distractor_diamondtriangles.svg	16	no	57	0	1767
6.6.1	win	2022-12-14	14:48:16	15:05:29	1031986	62865e3456c142785cfad2a7	871904279	1	practice_z	9	practice_z	3	stimuli_distractor_trianglediamonds.svg	stimuli_target_diamondcircles.svg	12	yes	44	1	742
6.6.1	win	2022-12-14	14:48:16	15:05:29	1031986	62865e3456c142785cfad2a7	871904279	1	practice_z	9	advance_on_keypress_ZEE	4	stimuli_distractor_trianglediamonds.svg	stimuli_target_diamondcircles.svg	12	yes	57	0	592
6.6.1	win	2022-12-14	14:48:16	15:05:34	1036227	62865e3456c142785cfad2a7	871904279	1	practice_z	9	practice_z	5	stimuli_distractor_trianglediamonds.svg	stimuli_distractor_trianglediamonds.svg	15	no	0	1	2000
6.6.1	win	2022-12-14	14:48:16	15:05:34	1036227	62865e3456c142785cfad2a7	871904279	1	practice_z	9	advance_on_keypress_ZEE	6	stimuli_distractor_trianglediamonds.svg	stimuli_distractor_trianglediamonds.svg	15	no	57	0	366
6.6.1	win	2022-12-14	14:48:16	15:05:37	1039114	62865e3456c142785cfad2a7	871904279	1	practice_z	9	practice_z	7	stimuli_distractor_trianglediamonds.svg	stimuli_target_circlediamonds.svg	10	yes	44	1	870
6.6.1	win	2022-12-14	14:48:16	15:05:37	1039114	62865e3456c142785cfad2a7	871904279	1	practice_z	9	advance_on_keypress_ZEE	8	stimuli_distractor_trianglediamonds.svg	stimuli_target_circlediamonds.svg	10	yes	57	0	707
6.6.1	win	2022-12-14	14:48:16	15:05:40	1042282	62865e3456c142785cfad2a7	871904279	1	practice_z	9	practice_z	9	stimuli_distractor_diamondtriangles.svg	stimuli_target_circletriangles.svg	7	yes	44	1	822
6.6.1	win	2022-12-14	14:48:16	15:05:40	1042282	62865e3456c142785cfad2a7	871904279	1	practice_z	9	advance_on_keypress_ZEE	10	stimuli_distractor_diamondtriangles.svg	stimuli_target_circletriangles.svg	7	yes	57	0	788
6.6.1	win	2022-12-14	14:48:16	15:05:43	1045410	62865e3456c142785cfad2a7	871904279	1	practice_z	9	practice_z	11	stimuli_distractor_diamondtriangles.svg	stimuli_target_trianglecircles.svg	9	yes	44	1	700
6.6.1	win	2022-12-14	14:48:16	15:05:43	1045410	62865e3456c142785cfad2a7	871904279	1	practice_z	9	advance_on_keypress_ZEE	12	stimuli_distractor_diamondtriangles.svg	stimuli_target_trianglecircles.svg	9	yes	57	0	463
6.6.1	win	2022-12-14	14:48:16	15:05:46	1048458	62865e3456c142785cfad2a7	871904279	1	practice_z	9	practice_z	13	stimuli_distractor_diamondtriangles.svg	stimuli_target_diamondcircles.svg	8	yes	44	1	931
6.6.1	win	2022-12-14	14:48:16	15:05:46	1048458	62865e3456c142785cfad2a7	871904279	1	practice_z	9	advance_on_keypress_ZEE	14	stimuli_distractor_diamondtriangles.svg	stimuli_target_diamondcircles.svg	8	yes	57	0	549
6.6.1	win	2022-12-14	14:48:16	15:05:49	1051490	62865e3456c142785cfad2a7	871904279	1	practice_z	9	practice_z	15	stimuli_target_diamondsquares.svg	stimuli_distractor_diamondtriangles.svg	3	yes	44	1	830
6.6.1	win	2022-12-14	14:48:16	15:05:49	1051490	62865e3456c142785cfad2a7	871904279	1	practice_z	9	advance_on_keypress_ZEE	16	stimuli_target_diamondsquares.svg	stimuli_distractor_diamondtriangles.svg	3	yes	57	0	580
6.6.1	win	2022-12-14	14:48:16	15:05:52	1054530	62865e3456c142785cfad2a7	871904279	1	practice_z	9	practice_z	17	stimuli_distractor_trianglediamonds.svg	stimuli_target_squarediamonds.svg	11	yes	44	1	803
6.6.1	win	2022-12-14	14:48:16	15:05:52	1054530	62865e3456c142785cfad2a7	871904279	1	practice_z	9	advance_on_keypress_ZEE	18	stimuli_distractor_trianglediamonds.svg	stimuli_target_squarediamonds.svg	11	yes	57	0	490
6.6.1	win	2022-12-14	14:48:16	15:05:56	1058660	62865e3456c142785cfad2a7	871904279	1	practice_z	9	practice_z	19	stimuli_distractor_diamondtriangles.svg	stimuli_distractor_trianglediamonds.svg	14	no	0	1	2000
6.6.1	win	2022-12-14	14:48:16	15:05:56	1058660	62865e3456c142785cfad2a7	871904279	1	practice_z	9	advance_on_keypress_ZEE	20	stimuli_distractor_diamondtriangles.svg	stimuli_distractor_trianglediamonds.svg	14	no	57	0	509
6.6.1	win	2022-12-14	14:48:16	15:05:59	1061546	62865e3456c142785cfad2a7	871904279	1	practice_z	9	practice_z	21	stimuli_target_circlediamonds.svg	stimuli_distractor_diamondtriangles.svg	1	yes	44	1	719
6.6.1	win	2022-12-14	14:48:16	15:05:59	1061546	62865e3456c142785cfad2a7	871904279	1	practice_z	9	advance_on_keypress_ZEE	22	stimuli_target_circlediamonds.svg	stimuli_distractor_diamondtriangles.svg	1	yes	57	0	410
6.6.1	win	2022-12-14	14:48:16	15:06:02	1064362	62865e3456c142785cfad2a7	871904279	1	practice_z	9	practice_z	23	stimuli_target_squarediamonds.svg	stimuli_distractor_diamondtriangles.svg	2	yes	44	1	752
6.6.1	win	2022-12-14	14:48:16	15:06:02	1064362	62865e3456c142785cfad2a7	871904279	1	practice_z	9	advance_on_keypress_ZEE	24	stimuli_target_squarediamonds.svg	stimuli_distractor_diamondtriangles.svg	2	yes	57	0	569
6.6.1	win	2022-12-14	14:48:16	15:06:05	1067346	62865e3456c142785cfad2a7	871904279	1	practice_z	9	practice_z	25	stimuli_target_circlediamonds.svg	stimuli_distractor_trianglediamonds.svg	4	yes	44	1	769
6.6.1	win	2022-12-14	14:48:16	15:06:05	1067346	62865e3456c142785cfad2a7	871904279	1	practice_z	9	advance_on_keypress_ZEE	26	stimuli_target_circlediamonds.svg	stimuli_distractor_trianglediamonds.svg	4	yes	57	0	418
6.6.1	win	2022-12-14	14:48:16	15:06:08	1070186	62865e3456c142785cfad2a7	871904279	1	practice_z	9	practice_z	27	stimuli_target_diamondsquares.svg	stimuli_distractor_trianglediamonds.svg	6	yes	44	1	776
6.6.1	win	2022-12-14	14:48:16	15:06:08	1070186	62865e3456c142785cfad2a7	871904279	1	practice_z	9	advance_on_keypress_ZEE	28	stimuli_target_diamondsquares.svg	stimuli_distractor_trianglediamonds.svg	6	yes	57	0	384
6.6.1	win	2022-12-14	14:48:16	15:06:10	1072961	62865e3456c142785cfad2a7	871904279	1	practice_z	9	practice_z	29	stimuli_target_squarediamonds.svg	stimuli_distractor_trianglediamonds.svg	5	yes	44	1	735
6.6.1	win	2022-12-14	14:48:16	15:06:10	1072961	62865e3456c142785cfad2a7	871904279	1	practice_z	9	advance_on_keypress_ZEE	30	stimuli_target_squarediamonds.svg	stimuli_distractor_trianglediamonds.svg	5	yes	57	0	393
6.6.1	win	2022-12-14	14:48:16	15:06:14	1077010	62865e3456c142785cfad2a7	871904279	1	practice_z	9	practice_z	31	stimuli_distractor_diamondtriangles.svg	stimuli_distractor_diamondtriangles.svg	13	no	0	1	2000
6.6.1	win	2022-12-14	14:48:16	15:06:14	1077010	62865e3456c142785cfad2a7	871904279	1	practice_z	9	advance_on_keypress_ZEE	32	stimuli_distractor_diamondtriangles.svg	stimuli_distractor_diamondtriangles.svg	13	no	57	0	599
6.6.1	win	2022-12-14	14:48:16	15:06:25	1087606	62865e3456c142785cfad2a7	871904279	1	main_z	11	main_z	1	stimuli_distractor_diamondtriangles.svg	stimuli_distractor_trianglediamonds.svg	38	no	0	1	2000
6.6.1	win	2022-12-14	14:48:16	15:06:25	1087606	62865e3456c142785cfad2a7	871904279	1	main_z	11	advance_on_keypress_ZEE	2	stimuli_distractor_diamondtriangles.svg	stimuli_distractor_trianglediamonds.svg	38	no	57	0	519
6.6.1	win	2022-12-14	14:48:16	15:06:27	1089798	62865e3456c142785cfad2a7	871904279	1	main_z	11	main_z	3	stimuli_target_circletriangles.svg	stimuli_distractor_diamondtriangles.svg	5	yes	44	1	1025
6.6.1	win	2022-12-14	14:48:16	15:06:27	1089798	62865e3456c142785cfad2a7	871904279	1	main_z	11	advance_on_keypress_ZEE	4	stimuli_target_circletriangles.svg	stimuli_distractor_diamondtriangles.svg	5	yes	57	0	680
6.6.1	win	2022-12-14	14:48:16	15:06:29	1092053	62865e3456c142785cfad2a7	871904279	1	main_z	11	main_z	5	stimuli_distractor_trianglediamonds.svg	stimuli_target_trianglesquares.svg	26	yes	44	1	931
6.6.1	win	2022-12-14	14:48:16	15:06:29	1092053	62865e3456c142785cfad2a7	871904279	1	main_z	11	advance_on_keypress_ZEE	6	stimuli_distractor_trianglediamonds.svg	stimuli_target_trianglesquares.svg	26	yes	57	0	638
6.6.1	win	2022-12-14	14:48:16	15:06:32	1094213	62865e3456c142785cfad2a7	871904279	1	main_z	11	main_z	7	stimuli_target_diamondsquares.svg	stimuli_distractor_diamondtriangles.svg	24	yes	44	1	875
6.6.1	win	2022-12-14	14:48:16	15:06:32	1094213	62865e3456c142785cfad2a7	871904279	1	main_z	11	advance_on_keypress_ZEE	8	stimuli_target_diamondsquares.svg	stimuli_distractor_diamondtriangles.svg	24	yes	57	0	680
6.6.1	win	2022-12-14	14:48:16	15:06:34	1096581	62865e3456c142785cfad2a7	871904279	1	main_z	11	main_z	9	stimuli_distractor_diamondtriangles.svg	stimuli_distractor_diamondtriangles.svg	40	no	44	0	1043
6.6.1	win	2022-12-14	14:48:16	15:06:34	1096581	62865e3456c142785cfad2a7	871904279	1	main_z	11	advance_on_keypress_ZEE	10	stimuli_distractor_diamondtriangles.svg	stimuli_distractor_diamondtriangles.svg	40	no	57	0	505
6.6.1	win	2022-12-14	14:48:16	15:06:36	1098677	62865e3456c142785cfad2a7	871904279	1	main_z	11	main_z	11	stimuli_distractor_trianglediamonds.svg	stimuli_target_trianglecircles.svg	25	yes	44	1	956
6.6.1	win	2022-12-14	14:48:16	15:06:36	1098677	62865e3456c142785cfad2a7	871904279	1	main_z	11	advance_on_keypress_ZEE	12	stimuli_distractor_trianglediamonds.svg	stimuli_target_trianglecircles.svg	25	yes	57	0	501
6.6.1	win	2022-12-14	14:48:16	15:06:39	1101823	62865e3456c142785cfad2a7	871904279	1	main_z	11	main_z	13	stimuli_distractor_diamondtriangles.svg	stimuli_distractor_trianglediamonds.svg	37	no	0	1	2000
6.6.1	win	2022-12-14	14:48:16	15:06:39	1101823	62865e3456c142785cfad2a7	871904279	1	main_z	11	advance_on_keypress_ZEE	14	stimuli_distractor_diamondtriangles.svg	stimuli_distractor_trianglediamonds.svg	37	no	57	0	815
6.6.1	win	2022-12-14	14:48:16	15:06:42	1104173	62865e3456c142785cfad2a7	871904279	1	main_z	11	main_z	15	stimuli_distractor_trianglediamonds.svg	stimuli_target_diamondcircles.svg	27	yes	44	1	885
6.6.1	win	2022-12-14	14:48:16	15:06:42	1104173	62865e3456c142785cfad2a7	871904279	1	main_z	11	advance_on_keypress_ZEE	16	stimuli_distractor_trianglediamonds.svg	stimuli_target_diamondcircles.svg	27	yes	57	0	521
6.6.1	win	2022-12-14	14:48:16	15:06:44	1106141	62865e3456c142785cfad2a7	871904279	1	main_z	11	main_z	17	stimuli_distractor_trianglediamonds.svg	stimuli_target_circlediamonds.svg	10	yes	44	1	803
6.6.1	win	2022-12-14	14:48:16	15:06:44	1106141	62865e3456c142785cfad2a7	871904279	1	main_z	11	advance_on_keypress_ZEE	18	stimuli_distractor_trianglediamonds.svg	stimuli_target_circlediamonds.svg	10	yes	57	0	522
6.6.1	win	2022-12-14	14:48:16	15:06:46	1108109	62865e3456c142785cfad2a7	871904279	1	main_z	11	main_z	19	stimuli_target_squarediamonds.svg	stimuli_distractor_trianglediamonds.svg	4	yes	44	1	804
6.6.1	win	2022-12-14	14:48:16	15:06:46	1108109	62865e3456c142785cfad2a7	871904279	1	main_z	11	advance_on_keypress_ZEE	20	stimuli_target_squarediamonds.svg	stimuli_distractor_trianglediamonds.svg	4	yes	57	0	444
6.6.1	win	2022-12-14	14:48:16	15:06:49	1111189	62865e3456c142785cfad2a7	871904279	1	main_z	11	main_z	21	stimuli_distractor_trianglediamonds.svg	stimuli_distractor_diamondtriangles.svg	35	no	0	1	2000
6.6.1	win	2022-12-14	14:48:16	15:06:49	1111189	62865e3456c142785cfad2a7	871904279	1	main_z	11	advance_on_keypress_ZEE	22	stimuli_distractor_trianglediamonds.svg	stimuli_distractor_diamondtriangles.svg	35	no	57	0	511
6.6.1	win	2022-12-14	14:48:16	15:06:51	1113093	62865e3456c142785cfad2a7	871904279	1	main_z	11	main_z	23	stimuli_distractor_trianglediamonds.svg	stimuli_target_squaretriangles.svg	11	yes	44	1	738
6.6.1	win	2022-12-14	14:48:16	15:06:51	1113093	62865e3456c142785cfad2a7	871904279	1	main_z	11	advance_on_keypress_ZEE	24	stimuli_distractor_trianglediamonds.svg	stimuli_target_squaretriangles.svg	11	yes	57	0	483
6.6.1	win	2022-12-14	14:48:16	15:06:53	1115085	62865e3456c142785cfad2a7	871904279	1	main_z	11	main_z	25	stimuli_target_trianglecircles.svg	stimuli_distractor_trianglediamonds.svg	17	yes	44	1	863
6.6.1	win	2022-12-14	14:48:16	15:06:53	1115085	62865e3456c142785cfad2a7	871904279	1	main_z	11	advance_on_keypress_ZEE	26	stimuli_target_trianglecircles.svg	stimuli_distractor_trianglediamonds.svg	17	yes	57	0	396
6.6.1	win	2022-12-14	14:48:16	15:06:54	1116989	62865e3456c142785cfad2a7	871904279	1	main_z	11	main_z	27	stimuli_distractor_diamondtriangles.svg	stimuli_target_squarediamonds.svg	16	yes	44	1	850
6.6.1	win	2022-12-14	14:48:16	15:06:54	1116989	62865e3456c142785cfad2a7	871904279	1	main_z	11	advance_on_keypress_ZEE	28	stimuli_distractor_diamondtriangles.svg	stimuli_target_squarediamonds.svg	16	yes	57	0	415
6.6.1	win	2022-12-14	14:48:16	15:06:56	1118925	62865e3456c142785cfad2a7	871904279	1	main_z	11	main_z	29	stimuli_target_squarediamonds.svg	stimuli_distractor_diamondtriangles.svg	8	yes	44	1	869
6.6.1	win	2022-12-14	14:48:16	15:06:56	1118925	62865e3456c142785cfad2a7	871904279	1	main_z	11	advance_on_keypress_ZEE	30	stimuli_target_squarediamonds.svg	stimuli_distractor_diamondtriangles.svg	8	yes	57	0	354
6.6.1	win	2022-12-14	14:48:16	15:06:58	1120813	62865e3456c142785cfad2a7	871904279	1	main_z	11	main_z	31	stimuli_target_diamondcircles.svg	stimuli_distractor_trianglediamonds.svg	19	yes	44	1	891
6.6.1	win	2022-12-14	14:48:16	15:06:58	1120813	62865e3456c142785cfad2a7	871904279	1	main_z	11	advance_on_keypress_ZEE	32	stimuli_target_diamondcircles.svg	stimuli_distractor_trianglediamonds.svg	19	yes	57	0	351
6.6.1	win	2022-12-14	14:48:16	15:07:00	1122717	62865e3456c142785cfad2a7	871904279	1	main_z	11	main_z	33	stimuli_target_squaretriangles.svg	stimuli_distractor_trianglediamonds.svg	3	yes	44	1	912
6.6.1	win	2022-12-14	14:48:16	15:07:00	1122717	62865e3456c142785cfad2a7	871904279	1	main_z	11	advance_on_keypress_ZEE	34	stimuli_target_squaretriangles.svg	stimuli_distractor_trianglediamonds.svg	3	yes	57	0	322
6.6.1	win	2022-12-14	14:48:16	15:07:02	1124605	62865e3456c142785cfad2a7	871904279	1	main_z	11	main_z	35	stimuli_target_squaretriangles.svg	stimuli_distractor_diamondtriangles.svg	7	yes	44	1	916
6.6.1	win	2022-12-14	14:48:16	15:07:02	1124605	62865e3456c142785cfad2a7	871904279	1	main_z	11	advance_on_keypress_ZEE	36	stimuli_target_squaretriangles.svg	stimuli_distractor_diamondtriangles.svg	7	yes	57	0	343
6.6.1	win	2022-12-14	14:48:16	15:07:04	1126477	62865e3456c142785cfad2a7	871904279	1	main_z	11	main_z	37	stimuli_distractor_diamondtriangles.svg	stimuli_target_trianglecircles.svg	29	yes	44	1	888
6.6.1	win	2022-12-14	14:48:16	15:07:04	1126477	62865e3456c142785cfad2a7	871904279	1	main_z	11	advance_on_keypress_ZEE	38	stimuli_distractor_diamondtriangles.svg	stimuli_target_trianglecircles.svg	29	yes	57	0	364
6.6.1	win	2022-12-14	14:48:16	15:07:06	1128429	62865e3456c142785cfad2a7	871904279	1	main_z	11	main_z	39	stimuli_distractor_diamondtriangles.svg	stimuli_target_diamondsquares.svg	32	yes	44	1	940
6.6.1	win	2022-12-14	14:48:16	15:07:06	1128429	62865e3456c142785cfad2a7	871904279	1	main_z	11	advance_on_keypress_ZEE	40	stimuli_distractor_diamondtriangles.svg	stimuli_target_diamondsquares.svg	32	yes	57	0	342
6.6.1	win	2022-12-14	14:48:16	15:07:08	1130309	62865e3456c142785cfad2a7	871904279	1	main_z	11	main_z	41	stimuli_distractor_trianglediamonds.svg	stimuli_target_diamondsquares.svg	28	yes	44	1	904
6.6.1	win	2022-12-14	14:48:16	15:07:08	1130309	62865e3456c142785cfad2a7	871904279	1	main_z	11	advance_on_keypress_ZEE	42	stimuli_distractor_trianglediamonds.svg	stimuli_target_diamondsquares.svg	28	yes	57	0	371
6.6.1	win	2022-12-14	14:48:16	15:07:10	1132157	62865e3456c142785cfad2a7	871904279	1	main_z	11	main_z	43	stimuli_target_diamondcircles.svg	stimuli_distractor_diamondtriangles.svg	23	yes	44	1	835
6.6.1	win	2022-12-14	14:48:16	15:07:10	1132157	62865e3456c142785cfad2a7	871904279	1	main_z	11	advance_on_keypress_ZEE	44	stimuli_target_diamondcircles.svg	stimuli_distractor_diamondtriangles.svg	23	yes	57	0	369
6.6.1	win	2022-12-14	14:48:16	15:07:12	1134093	62865e3456c142785cfad2a7	871904279	1	main_z	11	main_z	45	stimuli_distractor_diamondtriangles.svg	stimuli_target_squaretriangles.svg	15	yes	44	1	921
6.6.1	win	2022-12-14	14:48:16	15:07:12	1134093	62865e3456c142785cfad2a7	871904279	1	main_z	11	advance_on_keypress_ZEE	46	stimuli_distractor_diamondtriangles.svg	stimuli_target_squaretriangles.svg	15	yes	57	0	340
6.6.1	win	2022-12-14	14:48:16	15:07:13	1135989	62865e3456c142785cfad2a7	871904279	1	main_z	11	main_z	47	stimuli_distractor_diamondtriangles.svg	stimuli_target_circletriangles.svg	13	yes	44	1	917
6.6.1	win	2022-12-14	14:48:16	15:07:13	1135989	62865e3456c142785cfad2a7	871904279	1	main_z	11	advance_on_keypress_ZEE	48	stimuli_distractor_diamondtriangles.svg	stimuli_target_circletriangles.svg	13	yes	57	0	328
6.6.1	win	2022-12-14	14:48:16	15:07:15	1137869	62865e3456c142785cfad2a7	871904279	1	main_z	11	main_z	49	stimuli_distractor_diamondtriangles.svg	stimuli_target_diamondcircles.svg	31	yes	44	1	897
6.6.1	win	2022-12-14	14:48:16	15:07:15	1137869	62865e3456c142785cfad2a7	871904279	1	main_z	11	advance_on_keypress_ZEE	50	stimuli_distractor_diamondtriangles.svg	stimuli_target_diamondcircles.svg	31	yes	57	0	364
6.6.1	win	2022-12-14	14:48:16	15:07:17	1139861	62865e3456c142785cfad2a7	871904279	1	main_z	11	main_z	51	stimuli_target_trianglesquares.svg	stimuli_distractor_diamondtriangles.svg	22	yes	44	1	972
6.6.1	win	2022-12-14	14:48:16	15:07:17	1139861	62865e3456c142785cfad2a7	871904279	1	main_z	11	advance_on_keypress_ZEE	52	stimuli_target_trianglesquares.svg	stimuli_distractor_diamondtriangles.svg	22	yes	57	0	341
6.6.1	win	2022-12-14	14:48:16	15:07:19	1141733	62865e3456c142785cfad2a7	871904279	1	main_z	11	main_z	53	stimuli_distractor_trianglediamonds.svg	stimuli_target_circletriangles.svg	9	yes	44	1	894
6.6.1	win	2022-12-14	14:48:16	15:07:19	1141733	62865e3456c142785cfad2a7	871904279	1	main_z	11	advance_on_keypress_ZEE	54	stimuli_distractor_trianglediamonds.svg	stimuli_target_circletriangles.svg	9	yes	57	0	314
6.6.1	win	2022-12-14	14:48:16	15:07:21	1143637	62865e3456c142785cfad2a7	871904279	1	main_z	11	main_z	55	stimuli_target_diamondsquares.svg	stimuli_distractor_trianglediamonds.svg	20	yes	44	1	932
6.6.1	win	2022-12-14	14:48:16	15:07:21	1143637	62865e3456c142785cfad2a7	871904279	1	main_z	11	advance_on_keypress_ZEE	56	stimuli_target_diamondsquares.svg	stimuli_distractor_trianglediamonds.svg	20	yes	57	0	350
6.6.1	win	2022-12-14	14:48:16	15:07:23	1145557	62865e3456c142785cfad2a7	871904279	1	main_z	11	main_z	57	stimuli_distractor_trianglediamonds.svg	stimuli_target_squarediamonds.svg	12	yes	44	1	918
6.6.1	win	2022-12-14	14:48:16	15:07:23	1145557	62865e3456c142785cfad2a7	871904279	1	main_z	11	advance_on_keypress_ZEE	58	stimuli_distractor_trianglediamonds.svg	stimuli_target_squarediamonds.svg	12	yes	57	0	369
6.6.1	win	2022-12-14	14:48:16	15:07:26	1148572	62865e3456c142785cfad2a7	871904279	1	main_z	11	main_z	59	stimuli_distractor_trianglediamonds.svg	stimuli_distractor_trianglediamonds.svg	34	no	0	1	2000
6.6.1	win	2022-12-14	14:48:16	15:07:26	1148572	62865e3456c142785cfad2a7	871904279	1	main_z	11	advance_on_keypress_ZEE	60	stimuli_distractor_trianglediamonds.svg	stimuli_distractor_trianglediamonds.svg	34	no	57	0	520
6.6.1	win	2022-12-14	14:48:16	15:07:28	1150469	62865e3456c142785cfad2a7	871904279	1	main_z	11	main_z	61	stimuli_target_circlediamonds.svg	stimuli_distractor_trianglediamonds.svg	2	yes	44	1	731
6.6.1	win	2022-12-14	14:48:16	15:07:28	1150469	62865e3456c142785cfad2a7	871904279	1	main_z	11	advance_on_keypress_ZEE	62	stimuli_target_circlediamonds.svg	stimuli_distractor_trianglediamonds.svg	2	yes	57	0	389
6.6.1	win	2022-12-14	14:48:16	15:07:30	1152205	62865e3456c142785cfad2a7	871904279	1	main_z	11	main_z	63	stimuli_target_trianglecircles.svg	stimuli_distractor_diamondtriangles.svg	21	yes	44	1	700
6.6.1	win	2022-12-14	14:48:16	15:07:30	1152205	62865e3456c142785cfad2a7	871904279	1	main_z	11	advance_on_keypress_ZEE	64	stimuli_target_trianglecircles.svg	stimuli_distractor_diamondtriangles.svg	21	yes	57	0	359
6.6.1	win	2022-12-14	14:48:16	15:07:31	1153957	62865e3456c142785cfad2a7	871904279	1	main_z	11	main_z	65	stimuli_target_circletriangles.svg	stimuli_distractor_trianglediamonds.svg	1	yes	44	1	752
6.6.1	win	2022-12-14	14:48:16	15:07:31	1153957	62865e3456c142785cfad2a7	871904279	1	main_z	11	advance_on_keypress_ZEE	66	stimuli_target_circletriangles.svg	stimuli_distractor_trianglediamonds.svg	1	yes	57	0	393
6.6.1	win	2022-12-14	14:48:16	15:07:34	1156988	62865e3456c142785cfad2a7	871904279	1	main_z	11	main_z	67	stimuli_distractor_trianglediamonds.svg	stimuli_distractor_trianglediamonds.svg	33	no	0	1	2000
6.6.1	win	2022-12-14	14:48:16	15:07:34	1156988	62865e3456c142785cfad2a7	871904279	1	main_z	11	advance_on_keypress_ZEE	68	stimuli_distractor_trianglediamonds.svg	stimuli_distractor_trianglediamonds.svg	33	no	57	0	480
6.6.1	win	2022-12-14	14:48:16	15:07:37	1159077	62865e3456c142785cfad2a7	871904279	1	main_z	11	main_z	69	stimuli_target_trianglesquares.svg	stimuli_distractor_trianglediamonds.svg	18	yes	44	1	955
6.6.1	win	2022-12-14	14:48:16	15:07:37	1159077	62865e3456c142785cfad2a7	871904279	1	main_z	11	advance_on_keypress_ZEE	70	stimuli_target_trianglesquares.svg	stimuli_distractor_trianglediamonds.svg	18	yes	57	0	365
6.6.1	win	2022-12-14	14:48:16	15:07:40	1162088	62865e3456c142785cfad2a7	871904279	1	main_z	11	main_z	71	stimuli_distractor_trianglediamonds.svg	stimuli_distractor_diamondtriangles.svg	36	no	0	1	2000
6.6.1	win	2022-12-14	14:48:16	15:07:40	1162088	62865e3456c142785cfad2a7	871904279	1	main_z	11	advance_on_keypress_ZEE	72	stimuli_distractor_trianglediamonds.svg	stimuli_distractor_diamondtriangles.svg	36	no	57	0	532
6.6.1	win	2022-12-14	14:48:16	15:07:42	1164229	62865e3456c142785cfad2a7	871904279	1	main_z	11	main_z	73	stimuli_distractor_diamondtriangles.svg	stimuli_target_trianglesquares.svg	30	yes	44	1	957
6.6.1	win	2022-12-14	14:48:16	15:07:42	1164229	62865e3456c142785cfad2a7	871904279	1	main_z	11	advance_on_keypress_ZEE	74	stimuli_distractor_diamondtriangles.svg	stimuli_target_trianglesquares.svg	30	yes	57	0	295
6.6.1	win	2022-12-14	14:48:16	15:07:44	1166069	62865e3456c142785cfad2a7	871904279	1	main_z	11	main_z	75	stimuli_target_circlediamonds.svg	stimuli_distractor_diamondtriangles.svg	6	yes	44	1	897
6.6.1	win	2022-12-14	14:48:16	15:07:44	1166069	62865e3456c142785cfad2a7	871904279	1	main_z	11	advance_on_keypress_ZEE	76	stimuli_target_circlediamonds.svg	stimuli_distractor_diamondtriangles.svg	6	yes	57	0	397
6.6.1	win	2022-12-14	14:48:16	15:07:47	1169121	62865e3456c142785cfad2a7	871904279	1	main_z	11	main_z	77	stimuli_distractor_diamondtriangles.svg	stimuli_distractor_diamondtriangles.svg	39	no	0	1	2000
6.6.1	win	2022-12-14	14:48:16	15:07:47	1169121	62865e3456c142785cfad2a7	871904279	1	main_z	11	advance_on_keypress_ZEE	78	stimuli_distractor_diamondtriangles.svg	stimuli_distractor_diamondtriangles.svg	39	no	57	0	579
6.6.1	win	2022-12-14	14:48:16	15:07:49	1171285	62865e3456c142785cfad2a7	871904279	1	main_z	11	main_z	79	stimuli_distractor_diamondtriangles.svg	stimuli_target_circlediamonds.svg	14	yes	44	1	930
6.6.1	win	2022-12-14	14:48:16	15:07:49	1171285	62865e3456c142785cfad2a7	871904279	1	main_z	11	advance_on_keypress_ZEE	80	stimuli_distractor_diamondtriangles.svg	stimuli_target_circlediamonds.svg	14	yes	57	0	332
6.6.1	win	2022-12-14	14:48:16	15:07:51	1173189	62865e3456c142785cfad2a7	871904279	1	main_z	11	main_z	81	stimuli_distractor_diamondtriangles.svg	stimuli_target_circletriangles.svg	13	yes	44	1	917
6.6.1	win	2022-12-14	14:48:16	15:07:51	1173189	62865e3456c142785cfad2a7	871904279	1	main_z	11	advance_on_keypress_ZEE	82	stimuli_distractor_diamondtriangles.svg	stimuli_target_circletriangles.svg	13	yes	57	0	344
6.6.1	win	2022-12-14	14:48:16	15:07:54	1176188	62865e3456c142785cfad2a7	871904279	1	main_z	11	main_z	83	stimuli_distractor_trianglediamonds.svg	stimuli_distractor_diamondtriangles.svg	36	no	0	1	2000
6.6.1	win	2022-12-14	14:48:16	15:07:54	1176188	62865e3456c142785cfad2a7	871904279	1	main_z	11	advance_on_keypress_ZEE	84	stimuli_distractor_trianglediamonds.svg	stimuli_distractor_diamondtriangles.svg	36	no	57	0	520
6.6.1	win	2022-12-14	14:48:16	15:07:57	1179355	62865e3456c142785cfad2a7	871904279	1	main_z	11	main_z	85	stimuli_distractor_trianglediamonds.svg	stimuli_target_diamondsquares.svg	28	yes	0	0	2000
6.6.1	win	2022-12-14	14:48:16	15:07:57	1179355	62865e3456c142785cfad2a7	871904279	1	main_z	11	advance_on_keypress_ZEE	86	stimuli_distractor_trianglediamonds.svg	stimuli_target_diamondsquares.svg	28	yes	57	0	570
6.6.1	win	2022-12-14	14:48:16	15:07:59	1181549	62865e3456c142785cfad2a7	871904279	1	main_z	11	main_z	87	stimuli_target_diamondcircles.svg	stimuli_distractor_diamondtriangles.svg	23	yes	44	1	978
6.6.1	win	2022-12-14	14:48:16	15:07:59	1181549	62865e3456c142785cfad2a7	871904279	1	main_z	11	advance_on_keypress_ZEE	88	stimuli_target_diamondcircles.svg	stimuli_distractor_diamondtriangles.svg	23	yes	57	0	370
6.6.1	win	2022-12-14	14:48:16	15:08:01	1183501	62865e3456c142785cfad2a7	871904279	1	main_z	11	main_z	89	stimuli_distractor_trianglediamonds.svg	stimuli_target_trianglecircles.svg	25	yes	44	1	930
6.6.1	win	2022-12-14	14:48:16	15:08:01	1183501	62865e3456c142785cfad2a7	871904279	1	main_z	11	advance_on_keypress_ZEE	90	stimuli_distractor_trianglediamonds.svg	stimuli_target_trianglecircles.svg	25	yes	57	0	364
6.6.1	win	2022-12-14	14:48:16	15:08:04	1186521	62865e3456c142785cfad2a7	871904279	1	main_z	11	main_z	91	stimuli_distractor_diamondtriangles.svg	stimuli_distractor_diamondtriangles.svg	40	no	0	1	2000
6.6.1	win	2022-12-14	14:48:16	15:08:04	1186521	62865e3456c142785cfad2a7	871904279	1	main_z	11	advance_on_keypress_ZEE	92	stimuli_distractor_diamondtriangles.svg	stimuli_distractor_diamondtriangles.svg	40	no	57	0	611
6.6.1	win	2022-12-14	14:48:16	15:08:06	1188637	62865e3456c142785cfad2a7	871904279	1	main_z	11	main_z	93	stimuli_distractor_trianglediamonds.svg	stimuli_target_squarediamonds.svg	12	yes	44	1	849
6.6.1	win	2022-12-14	14:48:16	15:08:06	1188637	62865e3456c142785cfad2a7	871904279	1	main_z	11	advance_on_keypress_ZEE	94	stimuli_distractor_trianglediamonds.svg	stimuli_target_squarediamonds.svg	12	yes	57	0	366
6.6.1	win	2022-12-14	14:48:16	15:08:09	1191655	62865e3456c142785cfad2a7	871904279	1	main_z	11	main_z	95	stimuli_distractor_diamondtriangles.svg	stimuli_distractor_trianglediamonds.svg	38	no	0	1	2000
6.6.1	win	2022-12-14	14:48:16	15:08:09	1191655	62865e3456c142785cfad2a7	871904279	1	main_z	11	advance_on_keypress_ZEE	96	stimuli_distractor_diamondtriangles.svg	stimuli_distractor_trianglediamonds.svg	38	no	57	0	534
6.6.1	win	2022-12-14	14:48:16	15:08:11	1193764	62865e3456c142785cfad2a7	871904279	1	main_z	11	main_z	97	stimuli_target_squaretriangles.svg	stimuli_distractor_trianglediamonds.svg	3	yes	44	1	927
6.6.1	win	2022-12-14	14:48:16	15:08:11	1193764	62865e3456c142785cfad2a7	871904279	1	main_z	11	advance_on_keypress_ZEE	98	stimuli_target_squaretriangles.svg	stimuli_distractor_trianglediamonds.svg	3	yes	57	0	306
6.6.1	win	2022-12-14	14:48:16	15:08:13	1195548	62865e3456c142785cfad2a7	871904279	1	main_z	11	main_z	99	stimuli_target_diamondsquares.svg	stimuli_distractor_trianglediamonds.svg	20	yes	44	1	844
6.6.1	win	2022-12-14	14:48:16	15:08:13	1195548	62865e3456c142785cfad2a7	871904279	1	main_z	11	advance_on_keypress_ZEE	100	stimuli_target_diamondsquares.svg	stimuli_distractor_trianglediamonds.svg	20	yes	57	0	330
6.6.1	win	2022-12-14	14:48:16	15:08:15	1197452	62865e3456c142785cfad2a7	871904279	1	main_z	11	main_z	101	stimuli_distractor_diamondtriangles.svg	stimuli_target_squarediamonds.svg	16	yes	44	1	915
6.6.1	win	2022-12-14	14:48:16	15:08:15	1197452	62865e3456c142785cfad2a7	871904279	1	main_z	11	advance_on_keypress_ZEE	102	stimuli_distractor_diamondtriangles.svg	stimuli_target_squarediamonds.svg	16	yes	57	0	277
6.6.1	win	2022-12-14	14:48:16	15:08:18	1200371	62865e3456c142785cfad2a7	871904279	1	main_z	11	main_z	103	stimuli_distractor_diamondtriangles.svg	stimuli_target_diamondsquares.svg	32	yes	0	0	2000
6.6.1	win	2022-12-14	14:48:16	15:08:18	1200371	62865e3456c142785cfad2a7	871904279	1	main_z	11	advance_on_keypress_ZEE	104	stimuli_distractor_diamondtriangles.svg	stimuli_target_diamondsquares.svg	32	yes	57	0	480
6.6.1	win	2022-12-14	14:48:16	15:08:20	1202388	62865e3456c142785cfad2a7	871904279	1	main_z	11	main_z	105	stimuli_distractor_diamondtriangles.svg	stimuli_target_trianglesquares.svg	30	yes	44	1	883
6.6.1	win	2022-12-14	14:48:16	15:08:20	1202388	62865e3456c142785cfad2a7	871904279	1	main_z	11	advance_on_keypress_ZEE	106	stimuli_distractor_diamondtriangles.svg	stimuli_target_trianglesquares.svg	30	yes	57	0	295
6.6.1	win	2022-12-14	14:48:16	15:08:22	1204268	62865e3456c142785cfad2a7	871904279	1	main_z	11	main_z	107	stimuli_target_circlediamonds.svg	stimuli_distractor_trianglediamonds.svg	2	yes	44	1	930
6.6.1	win	2022-12-14	14:48:16	15:08:22	1204268	62865e3456c142785cfad2a7	871904279	1	main_z	11	advance_on_keypress_ZEE	108	stimuli_target_circlediamonds.svg	stimuli_distractor_trianglediamonds.svg	2	yes	57	0	284
6.6.1	win	2022-12-14	14:48:16	15:08:25	1207204	62865e3456c142785cfad2a7	871904279	1	main_z	11	main_z	109	stimuli_distractor_diamondtriangles.svg	stimuli_distractor_diamondtriangles.svg	39	no	0	1	2000
6.6.1	win	2022-12-14	14:48:16	15:08:25	1207204	62865e3456c142785cfad2a7	871904279	1	main_z	11	advance_on_keypress_ZEE	110	stimuli_distractor_diamondtriangles.svg	stimuli_distractor_diamondtriangles.svg	39	no	57	0	527
6.6.1	win	2022-12-14	14:48:16	15:08:27	1209236	62865e3456c142785cfad2a7	871904279	1	main_z	11	main_z	111	stimuli_distractor_trianglediamonds.svg	stimuli_target_diamondcircles.svg	27	yes	44	1	849
6.6.1	win	2022-12-14	14:48:16	15:08:27	1209236	62865e3456c142785cfad2a7	871904279	1	main_z	11	advance_on_keypress_ZEE	112	stimuli_distractor_trianglediamonds.svg	stimuli_target_diamondcircles.svg	27	yes	57	0	302
6.6.1	win	2022-12-14	14:48:16	15:08:30	1212188	62865e3456c142785cfad2a7	871904279	1	main_z	11	main_z	113	stimuli_distractor_trianglediamonds.svg	stimuli_distractor_trianglediamonds.svg	33	no	0	1	2000
6.6.1	win	2022-12-14	14:48:16	15:08:30	1212188	62865e3456c142785cfad2a7	871904279	1	main_z	11	advance_on_keypress_ZEE	114	stimuli_distractor_trianglediamonds.svg	stimuli_distractor_trianglediamonds.svg	33	no	57	0	528
6.6.1	win	2022-12-14	14:48:16	15:08:32	1214228	62865e3456c142785cfad2a7	871904279	1	main_z	11	main_z	115	stimuli_target_circletriangles.svg	stimuli_distractor_trianglediamonds.svg	1	yes	44	1	857
6.6.1	win	2022-12-14	14:48:16	15:08:32	1214228	62865e3456c142785cfad2a7	871904279	1	main_z	11	advance_on_keypress_ZEE	116	stimuli_target_circletriangles.svg	stimuli_distractor_trianglediamonds.svg	1	yes	57	0	342
6.6.1	win	2022-12-14	14:48:16	15:08:34	1216068	62865e3456c142785cfad2a7	871904279	1	main_z	11	main_z	117	stimuli_target_squarediamonds.svg	stimuli_distractor_diamondtriangles.svg	8	yes	44	1	864
6.6.1	win	2022-12-14	14:48:16	15:08:34	1216068	62865e3456c142785cfad2a7	871904279	1	main_z	11	advance_on_keypress_ZEE	118	stimuli_target_squarediamonds.svg	stimuli_distractor_diamondtriangles.svg	8	yes	57	0	348
6.6.1	win	2022-12-14	14:48:16	15:08:37	1219071	62865e3456c142785cfad2a7	871904279	1	main_z	11	main_z	119	stimuli_distractor_trianglediamonds.svg	stimuli_distractor_trianglediamonds.svg	34	no	0	1	2000
6.6.1	win	2022-12-14	14:48:16	15:08:37	1219071	62865e3456c142785cfad2a7	871904279	1	main_z	11	advance_on_keypress_ZEE	120	stimuli_distractor_trianglediamonds.svg	stimuli_distractor_trianglediamonds.svg	34	no	57	0	628
6.6.1	win	2022-12-14	14:48:16	15:08:39	1221076	62865e3456c142785cfad2a7	871904279	1	main_z	11	main_z	121	stimuli_distractor_trianglediamonds.svg	stimuli_target_trianglesquares.svg	26	yes	44	1	722
6.6.1	win	2022-12-14	14:48:16	15:08:39	1221076	62865e3456c142785cfad2a7	871904279	1	main_z	11	advance_on_keypress_ZEE	122	stimuli_distractor_trianglediamonds.svg	stimuli_target_trianglesquares.svg	26	yes	57	0	356
6.6.1	win	2022-12-14	14:48:16	15:08:40	1222956	62865e3456c142785cfad2a7	871904279	1	main_z	11	main_z	123	stimuli_target_diamondsquares.svg	stimuli_distractor_diamondtriangles.svg	24	yes	44	1	885
6.6.1	win	2022-12-14	14:48:16	15:08:40	1222956	62865e3456c142785cfad2a7	871904279	1	main_z	11	advance_on_keypress_ZEE	124	stimuli_target_diamondsquares.svg	stimuli_distractor_diamondtriangles.svg	24	yes	57	0	385
6.6.1	win	2022-12-14	14:48:16	15:08:43	1225987	62865e3456c142785cfad2a7	871904279	1	main_z	11	main_z	125	stimuli_distractor_diamondtriangles.svg	stimuli_distractor_trianglediamonds.svg	37	no	0	1	2000
6.6.1	win	2022-12-14	14:48:16	15:08:43	1225987	62865e3456c142785cfad2a7	871904279	1	main_z	11	advance_on_keypress_ZEE	126	stimuli_distractor_diamondtriangles.svg	stimuli_distractor_trianglediamonds.svg	37	no	57	0	568
6.6.1	win	2022-12-14	14:48:16	15:08:45	1228044	62865e3456c142785cfad2a7	871904279	1	main_z	11	main_z	127	stimuli_distractor_diamondtriangles.svg	stimuli_target_squaretriangles.svg	15	yes	44	1	840
6.6.1	win	2022-12-14	14:48:16	15:08:45	1228044	62865e3456c142785cfad2a7	871904279	1	main_z	11	advance_on_keypress_ZEE	128	stimuli_distractor_diamondtriangles.svg	stimuli_target_squaretriangles.svg	15	yes	57	0	334
6.6.1	win	2022-12-14	14:48:16	15:08:48	1231021	62865e3456c142785cfad2a7	871904279	1	main_z	11	main_z	129	stimuli_distractor_trianglediamonds.svg	stimuli_distractor_diamondtriangles.svg	35	no	0	1	2000
6.6.1	win	2022-12-14	14:48:16	15:08:48	1231021	62865e3456c142785cfad2a7	871904279	1	main_z	11	advance_on_keypress_ZEE	130	stimuli_distractor_trianglediamonds.svg	stimuli_distractor_diamondtriangles.svg	35	no	57	0	526
6.6.1	win	2022-12-14	14:48:16	15:08:50	1233028	62865e3456c142785cfad2a7	871904279	1	main_z	11	main_z	131	stimuli_target_diamondcircles.svg	stimuli_distractor_trianglediamonds.svg	19	yes	44	1	840
6.6.1	win	2022-12-14	14:48:16	15:08:50	1233028	62865e3456c142785cfad2a7	871904279	1	main_z	11	advance_on_keypress_ZEE	132	stimuli_target_diamondcircles.svg	stimuli_distractor_trianglediamonds.svg	19	yes	57	0	375
6.6.1	win	2022-12-14	14:48:16	15:08:52	1234876	62865e3456c142785cfad2a7	871904279	1	main_z	11	main_z	133	stimuli_distractor_trianglediamonds.svg	stimuli_target_circletriangles.svg	9	yes	44	1	838
6.6.1	win	2022-12-14	14:48:16	15:08:52	1234876	62865e3456c142785cfad2a7	871904279	1	main_z	11	advance_on_keypress_ZEE	134	stimuli_distractor_trianglediamonds.svg	stimuli_target_circletriangles.svg	9	yes	57	0	357
6.6.1	win	2022-12-14	14:48:16	15:08:54	1236724	62865e3456c142785cfad2a7	871904279	1	main_z	11	main_z	135	stimuli_distractor_diamondtriangles.svg	stimuli_target_trianglecircles.svg	29	yes	44	1	853
6.6.1	win	2022-12-14	14:48:16	15:08:54	1236724	62865e3456c142785cfad2a7	871904279	1	main_z	11	advance_on_keypress_ZEE	136	stimuli_distractor_diamondtriangles.svg	stimuli_target_trianglecircles.svg	29	yes	57	0	363
6.6.1	win	2022-12-14	14:48:16	15:08:56	1238676	62865e3456c142785cfad2a7	871904279	1	main_z	11	main_z	137	stimuli_target_squarediamonds.svg	stimuli_distractor_trianglediamonds.svg	4	yes	44	1	939
6.6.1	win	2022-12-14	14:48:16	15:08:56	1238676	62865e3456c142785cfad2a7	871904279	1	main_z	11	advance_on_keypress_ZEE	138	stimuli_target_squarediamonds.svg	stimuli_distractor_trianglediamonds.svg	4	yes	57	0	381
6.6.1	win	2022-12-14	14:48:16	15:08:58	1240644	62865e3456c142785cfad2a7	871904279	1	main_z	11	main_z	139	stimuli_target_circletriangles.svg	stimuli_distractor_diamondtriangles.svg	5	yes	44	1	940
6.6.1	win	2022-12-14	14:48:16	15:08:58	1240644	62865e3456c142785cfad2a7	871904279	1	main_z	11	advance_on_keypress_ZEE	140	stimuli_target_circletriangles.svg	stimuli_distractor_diamondtriangles.svg	5	yes	57	0	374
6.6.1	win	2022-12-14	14:48:16	15:09:00	1242612	62865e3456c142785cfad2a7	871904279	1	main_z	11	main_z	141	stimuli_target_circlediamonds.svg	stimuli_distractor_diamondtriangles.svg	6	yes	44	1	958
6.6.1	win	2022-12-14	14:48:16	15:09:00	1242612	62865e3456c142785cfad2a7	871904279	1	main_z	11	advance_on_keypress_ZEE	142	stimuli_target_circlediamonds.svg	stimuli_distractor_diamondtriangles.svg	6	yes	57	0	383
6.6.1	win	2022-12-14	14:48:16	15:09:02	1244612	62865e3456c142785cfad2a7	871904279	1	main_z	11	main_z	143	stimuli_target_trianglecircles.svg	stimuli_distractor_trianglediamonds.svg	17	yes	44	1	975
6.6.1	win	2022-12-14	14:48:16	15:09:02	1244612	62865e3456c142785cfad2a7	871904279	1	main_z	11	advance_on_keypress_ZEE	144	stimuli_target_trianglecircles.svg	stimuli_distractor_trianglediamonds.svg	17	yes	57	0	359
6.6.1	win	2022-12-14	14:48:16	15:09:04	1246556	62865e3456c142785cfad2a7	871904279	1	main_z	11	main_z	145	stimuli_distractor_diamondtriangles.svg	stimuli_target_diamondcircles.svg	31	yes	44	1	952
6.6.1	win	2022-12-14	14:48:16	15:09:04	1246556	62865e3456c142785cfad2a7	871904279	1	main_z	11	advance_on_keypress_ZEE	146	stimuli_distractor_diamondtriangles.svg	stimuli_target_diamondcircles.svg	31	yes	57	0	353
6.6.1	win	2022-12-14	14:48:16	15:09:06	1248492	62865e3456c142785cfad2a7	871904279	1	main_z	11	main_z	147	stimuli_target_trianglecircles.svg	stimuli_distractor_diamondtriangles.svg	21	yes	44	1	938
6.6.1	win	2022-12-14	14:48:16	15:09:06	1248492	62865e3456c142785cfad2a7	871904279	1	main_z	11	advance_on_keypress_ZEE	148	stimuli_target_trianglecircles.svg	stimuli_distractor_diamondtriangles.svg	21	yes	57	0	380
6.6.1	win	2022-12-14	14:48:16	15:09:08	1250492	62865e3456c142785cfad2a7	871904279	1	main_z	11	main_z	149	stimuli_target_squaretriangles.svg	stimuli_distractor_diamondtriangles.svg	7	yes	44	1	971
6.6.1	win	2022-12-14	14:48:16	15:09:08	1250492	62865e3456c142785cfad2a7	871904279	1	main_z	11	advance_on_keypress_ZEE	150	stimuli_target_squaretriangles.svg	stimuli_distractor_diamondtriangles.svg	7	yes	57	0	348
6.6.1	win	2022-12-14	14:48:16	15:09:10	1252428	62865e3456c142785cfad2a7	871904279	1	main_z	11	main_z	151	stimuli_distractor_diamondtriangles.svg	stimuli_target_circlediamonds.svg	14	yes	44	1	941
6.6.1	win	2022-12-14	14:48:16	15:09:10	1252428	62865e3456c142785cfad2a7	871904279	1	main_z	11	advance_on_keypress_ZEE	152	stimuli_distractor_diamondtriangles.svg	stimuli_target_circlediamonds.svg	14	yes	57	0	359
6.6.1	win	2022-12-14	14:48:16	15:09:12	1254380	62865e3456c142785cfad2a7	871904279	1	main_z	11	main_z	153	stimuli_distractor_trianglediamonds.svg	stimuli_target_circlediamonds.svg	10	yes	44	1	959
6.6.1	win	2022-12-14	14:48:16	15:09:12	1254380	62865e3456c142785cfad2a7	871904279	1	main_z	11	advance_on_keypress_ZEE	154	stimuli_distractor_trianglediamonds.svg	stimuli_target_circlediamonds.svg	10	yes	57	0	337
6.6.1	win	2022-12-14	14:48:16	15:09:14	1256412	62865e3456c142785cfad2a7	871904279	1	main_z	11	main_z	155	stimuli_target_trianglesquares.svg	stimuli_distractor_diamondtriangles.svg	22	yes	44	1	1058
6.6.1	win	2022-12-14	14:48:16	15:09:14	1256412	62865e3456c142785cfad2a7	871904279	1	main_z	11	advance_on_keypress_ZEE	156	stimuli_target_trianglesquares.svg	stimuli_distractor_diamondtriangles.svg	22	yes	57	0	367
6.6.1	win	2022-12-14	14:48:16	15:09:16	1258580	62865e3456c142785cfad2a7	871904279	1	main_z	11	main_z	157	stimuli_distractor_trianglediamonds.svg	stimuli_target_squaretriangles.svg	11	yes	44	1	1159
6.6.1	win	2022-12-14	14:48:16	15:09:16	1258580	62865e3456c142785cfad2a7	871904279	1	main_z	11	advance_on_keypress_ZEE	158	stimuli_distractor_trianglediamonds.svg	stimuli_target_squaretriangles.svg	11	yes	57	0	321
6.6.1	win	2022-12-14	14:48:16	15:09:18	1260492	62865e3456c142785cfad2a7	871904279	1	main_z	11	main_z	159	stimuli_target_trianglesquares.svg	stimuli_distractor_trianglediamonds.svg	18	yes	44	1	955
6.6.1	win	2022-12-14	14:48:16	15:09:18	1260492	62865e3456c142785cfad2a7	871904279	1	main_z	11	advance_on_keypress_ZEE	160	stimuli_target_trianglesquares.svg	stimuli_distractor_trianglediamonds.svg	18	yes	57	0	380