build	computer.platform	date	time	timestamp	time_elapsed_ms	subject	group	session	blockcode	blocknum	trialcode	trialnum	stimulus_left	stimulus_right	stim_index	target_present	response	correct	latency
6.6.1	mac	2023-01-02	01:43:01	01:46:03	180530	605867abaf0023b996742de2	524518784	1	practice_z	5	practice_z	1	stimuli_target_squarediamonds.svg	stimuli_distractor_trianglediamonds.svg	5	yes	0	0	2000
6.6.1	mac	2023-01-02	01:43:01	01:46:03	180530	605867abaf0023b996742de2	524518784	1	practice_z	5	advance_on_keypress_ZEE	2	stimuli_target_squarediamonds.svg	stimuli_distractor_trianglediamonds.svg	5	yes	57	0	1693
6.6.1	mac	2023-01-02	01:43:01	01:46:08	185869	605867abaf0023b996742de2	524518784	1	practice_z	5	practice_z	3	stimuli_distractor_trianglediamonds.svg	stimuli_target_diamondcircles.svg	12	yes	0	0	2000
6.6.1	mac	2023-01-02	01:43:01	01:46:08	185869	605867abaf0023b996742de2	524518784	1	practice_z	5	advance_on_keypress_ZEE	4	stimuli_distractor_trianglediamonds.svg	stimuli_target_diamondcircles.svg	12	yes	57	0	1883
6.6.1	mac	2023-01-02	01:43:01	01:46:14	191407	605867abaf0023b996742de2	524518784	1	practice_z	5	practice_z	5	stimuli_distractor_diamondtriangles.svg	stimuli_distractor_diamondtriangles.svg	13	no	0	1	2000
6.6.1	mac	2023-01-02	01:43:01	01:46:14	191407	605867abaf0023b996742de2	524518784	1	practice_z	5	advance_on_keypress_ZEE	6	stimuli_distractor_diamondtriangles.svg	stimuli_distractor_diamondtriangles.svg	13	no	57	0	1640
6.6.1	mac	2023-01-02	01:43:01	01:46:18	195169	605867abaf0023b996742de2	524518784	1	practice_z	5	practice_z	7	stimuli_target_circlediamonds.svg	stimuli_distractor_diamondtriangles.svg	1	yes	44	1	460
6.6.1	mac	2023-01-02	01:43:01	01:46:18	195169	605867abaf0023b996742de2	524518784	1	practice_z	5	advance_on_keypress_ZEE	8	stimuli_target_circlediamonds.svg	stimuli_distractor_diamondtriangles.svg	1	yes	57	0	2002
6.6.1	mac	2023-01-02	01:43:01	01:46:23	200799	605867abaf0023b996742de2	524518784	1	practice_z	5	practice_z	9	stimuli_distractor_diamondtriangles.svg	stimuli_distractor_trianglediamonds.svg	14	no	0	1	2000
6.6.1	mac	2023-01-02	01:43:01	01:46:23	200799	605867abaf0023b996742de2	524518784	1	practice_z	5	advance_on_keypress_ZEE	10	stimuli_distractor_diamondtriangles.svg	stimuli_distractor_trianglediamonds.svg	14	no	57	0	940
6.6.1	mac	2023-01-02	01:43:01	01:46:27	204303	605867abaf0023b996742de2	524518784	1	practice_z	5	practice_z	11	stimuli_target_diamondsquares.svg	stimuli_distractor_diamondtriangles.svg	3	yes	44	1	916
6.6.1	mac	2023-01-02	01:43:01	01:46:27	204303	605867abaf0023b996742de2	524518784	1	practice_z	5	advance_on_keypress_ZEE	12	stimuli_target_diamondsquares.svg	stimuli_distractor_diamondtriangles.svg	3	yes	57	0	1582
6.6.1	mac	2023-01-02	01:43:01	01:46:31	208250	605867abaf0023b996742de2	524518784	1	practice_z	5	practice_z	13	stimuli_distractor_diamondtriangles.svg	stimuli_target_trianglecircles.svg	9	yes	44	1	712
6.6.1	mac	2023-01-02	01:43:01	01:46:31	208250	605867abaf0023b996742de2	524518784	1	practice_z	5	advance_on_keypress_ZEE	14	stimuli_distractor_diamondtriangles.svg	stimuli_target_trianglecircles.svg	9	yes	57	0	1527
6.6.1	mac	2023-01-02	01:43:01	01:46:35	212076	605867abaf0023b996742de2	524518784	1	practice_z	5	practice_z	15	stimuli_target_squarediamonds.svg	stimuli_distractor_diamondtriangles.svg	2	yes	44	1	656
6.6.1	mac	2023-01-02	01:43:01	01:46:35	212076	605867abaf0023b996742de2	524518784	1	practice_z	5	advance_on_keypress_ZEE	16	stimuli_target_squarediamonds.svg	stimuli_distractor_diamondtriangles.svg	2	yes	57	0	1000
6.6.1	mac	2023-01-02	01:43:01	01:46:39	216703	605867abaf0023b996742de2	524518784	1	practice_z	5	practice_z	17	stimuli_distractor_trianglediamonds.svg	stimuli_distractor_trianglediamonds.svg	15	no	0	1	2000
6.6.1	mac	2023-01-02	01:43:01	01:46:39	216703	605867abaf0023b996742de2	524518784	1	practice_z	5	advance_on_keypress_ZEE	18	stimuli_distractor_trianglediamonds.svg	stimuli_distractor_trianglediamonds.svg	15	no	57	0	1258
6.6.1	mac	2023-01-02	01:43:01	01:46:44	221576	605867abaf0023b996742de2	524518784	1	practice_z	5	practice_z	19	stimuli_distractor_trianglediamonds.svg	stimuli_distractor_diamondtriangles.svg	16	no	0	1	2000
6.6.1	mac	2023-01-02	01:43:01	01:46:44	221576	605867abaf0023b996742de2	524518784	1	practice_z	5	advance_on_keypress_ZEE	20	stimuli_distractor_trianglediamonds.svg	stimuli_distractor_diamondtriangles.svg	16	no	57	0	764
6.6.1	mac	2023-01-02	01:43:01	01:46:47	224616	605867abaf0023b996742de2	524518784	1	practice_z	5	practice_z	21	stimuli_distractor_trianglediamonds.svg	stimuli_target_squarediamonds.svg	11	yes	44	1	635
6.6.1	mac	2023-01-02	01:43:01	01:46:47	224616	605867abaf0023b996742de2	524518784	1	practice_z	5	advance_on_keypress_ZEE	22	stimuli_distractor_trianglediamonds.svg	stimuli_target_squarediamonds.svg	11	yes	57	0	1065
6.6.1	mac	2023-01-02	01:43:01	01:46:50	227785	605867abaf0023b996742de2	524518784	1	practice_z	5	practice_z	23	stimuli_distractor_trianglediamonds.svg	stimuli_target_circlediamonds.svg	10	yes	44	1	483
6.6.1	mac	2023-01-02	01:43:01	01:46:50	227785	605867abaf0023b996742de2	524518784	1	practice_z	5	advance_on_keypress_ZEE	24	stimuli_distractor_trianglediamonds.svg	stimuli_target_circlediamonds.svg	10	yes	57	0	714
6.6.1	mac	2023-01-02	01:43:01	01:46:53	230669	605867abaf0023b996742de2	524518784	1	practice_z	5	practice_z	25	stimuli_distractor_diamondtriangles.svg	stimuli_target_circletriangles.svg	7	yes	44	1	530
6.6.1	mac	2023-01-02	01:43:01	01:46:53	230669	605867abaf0023b996742de2	524518784	1	practice_z	5	advance_on_keypress_ZEE	26	stimuli_distractor_diamondtriangles.svg	stimuli_target_circletriangles.svg	7	yes	57	0	786
6.6.1	mac	2023-01-02	01:43:01	01:46:56	233674	605867abaf0023b996742de2	524518784	1	practice_z	5	practice_z	27	stimuli_distractor_diamondtriangles.svg	stimuli_target_diamondcircles.svg	8	yes	44	1	582
6.6.1	mac	2023-01-02	01:43:01	01:46:56	233674	605867abaf0023b996742de2	524518784	1	practice_z	5	advance_on_keypress_ZEE	28	stimuli_distractor_diamondtriangles.svg	stimuli_target_diamondcircles.svg	8	yes	57	0	679
6.6.1	mac	2023-01-02	01:43:01	01:46:59	236890	605867abaf0023b996742de2	524518784	1	practice_z	5	practice_z	29	stimuli_target_diamondsquares.svg	stimuli_distractor_trianglediamonds.svg	6	yes	44	1	892
6.6.1	mac	2023-01-02	01:43:01	01:46:59	236890	605867abaf0023b996742de2	524518784	1	practice_z	5	advance_on_keypress_ZEE	30	stimuli_target_diamondsquares.svg	stimuli_distractor_trianglediamonds.svg	6	yes	57	0	730
6.6.1	mac	2023-01-02	01:43:01	01:47:02	239804	605867abaf0023b996742de2	524518784	1	practice_z	5	practice_z	31	stimuli_target_circlediamonds.svg	stimuli_distractor_trianglediamonds.svg	4	yes	44	1	541
6.6.1	mac	2023-01-02	01:43:01	01:47:02	239804	605867abaf0023b996742de2	524518784	1	practice_z	5	advance_on_keypress_ZEE	32	stimuli_target_circlediamonds.svg	stimuli_distractor_trianglediamonds.svg	4	yes	57	0	631
6.6.1	mac	2023-01-02	01:43:01	01:47:11	248843	605867abaf0023b996742de2	524518784	1	main_z	7	main_z	1	stimuli_target_trianglesquares.svg	stimuli_distractor_trianglediamonds.svg	18	yes	44	1	587
6.6.1	mac	2023-01-02	01:43:01	01:47:11	248843	605867abaf0023b996742de2	524518784	1	main_z	7	advance_on_keypress_ZEE	2	stimuli_target_trianglesquares.svg	stimuli_distractor_trianglediamonds.svg	18	yes	57	0	1719
6.6.1	mac	2023-01-02	01:43:01	01:47:14	251576	605867abaf0023b996742de2	524518784	1	main_z	7	main_z	3	stimuli_distractor_diamondtriangles.svg	stimuli_target_circletriangles.svg	13	yes	44	1	373
6.6.1	mac	2023-01-02	01:43:01	01:47:14	251576	605867abaf0023b996742de2	524518784	1	main_z	7	advance_on_keypress_ZEE	4	stimuli_distractor_diamondtriangles.svg	stimuli_target_circletriangles.svg	13	yes	57	0	1506
6.6.1	mac	2023-01-02	01:43:01	01:47:18	255721	605867abaf0023b996742de2	524518784	1	main_z	7	main_z	5	stimuli_distractor_diamondtriangles.svg	stimuli_distractor_diamondtriangles.svg	40	no	0	1	2000
6.6.1	mac	2023-01-02	01:43:01	01:47:18	255721	605867abaf0023b996742de2	524518784	1	main_z	7	advance_on_keypress_ZEE	6	stimuli_distractor_diamondtriangles.svg	stimuli_distractor_diamondtriangles.svg	40	no	57	0	984
6.6.1	mac	2023-01-02	01:43:01	01:47:21	258336	605867abaf0023b996742de2	524518784	1	main_z	7	main_z	7	stimuli_distractor_diamondtriangles.svg	stimuli_distractor_trianglediamonds.svg	38	no	44	0	1004
6.6.1	mac	2023-01-02	01:43:01	01:47:21	258336	605867abaf0023b996742de2	524518784	1	main_z	7	advance_on_keypress_ZEE	8	stimuli_distractor_diamondtriangles.svg	stimuli_distractor_trianglediamonds.svg	38	no	57	0	1796
6.6.1	mac	2023-01-02	01:43:01	01:47:24	261328	605867abaf0023b996742de2	524518784	1	main_z	7	main_z	9	stimuli_distractor_diamondtriangles.svg	stimuli_target_squaretriangles.svg	15	yes	44	1	561
6.6.1	mac	2023-01-02	01:43:01	01:47:24	261328	605867abaf0023b996742de2	524518784	1	main_z	7	advance_on_keypress_ZEE	10	stimuli_distractor_diamondtriangles.svg	stimuli_target_squaretriangles.svg	15	yes	57	0	1201
6.6.1	mac	2023-01-02	01:43:01	01:47:28	265149	605867abaf0023b996742de2	524518784	1	main_z	7	main_z	11	stimuli_distractor_diamondtriangles.svg	stimuli_distractor_diamondtriangles.svg	39	no	0	1	2000
6.6.1	mac	2023-01-02	01:43:01	01:47:28	265149	605867abaf0023b996742de2	524518784	1	main_z	7	advance_on_keypress_ZEE	12	stimuli_distractor_diamondtriangles.svg	stimuli_distractor_diamondtriangles.svg	39	no	57	0	997
6.6.1	mac	2023-01-02	01:43:01	01:47:30	267403	605867abaf0023b996742de2	524518784	1	main_z	7	main_z	13	stimuli_distractor_trianglediamonds.svg	stimuli_target_trianglecircles.svg	25	yes	44	1	614
6.6.1	mac	2023-01-02	01:43:01	01:47:30	267403	605867abaf0023b996742de2	524518784	1	main_z	7	advance_on_keypress_ZEE	14	stimuli_distractor_trianglediamonds.svg	stimuli_target_trianglecircles.svg	25	yes	57	0	1355
6.6.1	mac	2023-01-02	01:43:01	01:47:33	270116	605867abaf0023b996742de2	524518784	1	main_z	7	main_z	15	stimuli_distractor_diamondtriangles.svg	stimuli_target_diamondcircles.svg	31	yes	44	1	722
6.6.1	mac	2023-01-02	01:43:01	01:47:33	270116	605867abaf0023b996742de2	524518784	1	main_z	7	advance_on_keypress_ZEE	16	stimuli_distractor_diamondtriangles.svg	stimuli_target_diamondcircles.svg	31	yes	57	0	1207
6.6.1	mac	2023-01-02	01:43:01	01:47:35	272326	605867abaf0023b996742de2	524518784	1	main_z	7	main_z	17	stimuli_distractor_trianglediamonds.svg	stimuli_target_circletriangles.svg	9	yes	44	1	369
6.6.1	mac	2023-01-02	01:43:01	01:47:35	272326	605867abaf0023b996742de2	524518784	1	main_z	7	advance_on_keypress_ZEE	18	stimuli_distractor_trianglediamonds.svg	stimuli_target_circletriangles.svg	9	yes	57	0	1243
6.6.1	mac	2023-01-02	01:43:01	01:47:37	274621	605867abaf0023b996742de2	524518784	1	main_z	7	main_z	19	stimuli_target_circletriangles.svg	stimuli_distractor_diamondtriangles.svg	5	yes	44	1	422
6.6.1	mac	2023-01-02	01:43:01	01:47:37	274621	605867abaf0023b996742de2	524518784	1	main_z	7	advance_on_keypress_ZEE	20	stimuli_target_circletriangles.svg	stimuli_distractor_diamondtriangles.svg	5	yes	57	0	1069
6.6.1	mac	2023-01-02	01:43:01	01:47:39	276819	605867abaf0023b996742de2	524518784	1	main_z	7	main_z	21	stimuli_distractor_trianglediamonds.svg	stimuli_target_squarediamonds.svg	12	yes	44	1	506
6.6.1	mac	2023-01-02	01:43:01	01:47:39	276819	605867abaf0023b996742de2	524518784	1	main_z	7	advance_on_keypress_ZEE	22	stimuli_distractor_trianglediamonds.svg	stimuli_target_squarediamonds.svg	12	yes	57	0	1104
6.6.1	mac	2023-01-02	01:43:01	01:47:42	279181	605867abaf0023b996742de2	524518784	1	main_z	7	main_z	23	stimuli_target_squarediamonds.svg	stimuli_distractor_trianglediamonds.svg	4	yes	44	1	639
6.6.1	mac	2023-01-02	01:43:01	01:47:42	279181	605867abaf0023b996742de2	524518784	1	main_z	7	advance_on_keypress_ZEE	24	stimuli_target_squarediamonds.svg	stimuli_distractor_trianglediamonds.svg	4	yes	57	0	1034
6.6.1	mac	2023-01-02	01:43:01	01:47:44	281226	605867abaf0023b996742de2	524518784	1	main_z	7	main_z	25	stimuli_distractor_trianglediamonds.svg	stimuli_distractor_diamondtriangles.svg	35	no	44	0	393
6.6.1	mac	2023-01-02	01:43:01	01:47:44	281226	605867abaf0023b996742de2	524518784	1	main_z	7	advance_on_keypress_ZEE	26	stimuli_distractor_trianglediamonds.svg	stimuli_distractor_diamondtriangles.svg	35	no	57	0	2161
6.6.1	mac	2023-01-02	01:43:01	01:47:47	284636	605867abaf0023b996742de2	524518784	1	main_z	7	main_z	27	stimuli_target_trianglecircles.svg	stimuli_distractor_diamondtriangles.svg	21	yes	44	1	629
6.6.1	mac	2023-01-02	01:43:01	01:47:47	284636	605867abaf0023b996742de2	524518784	1	main_z	7	advance_on_keypress_ZEE	28	stimuli_target_trianglecircles.svg	stimuli_distractor_diamondtriangles.svg	21	yes	57	0	2131
6.6.1	mac	2023-01-02	01:43:01	01:47:50	287836	605867abaf0023b996742de2	524518784	1	main_z	7	main_z	29	stimuli_target_circletriangles.svg	stimuli_distractor_trianglediamonds.svg	1	yes	44	1	449
6.6.1	mac	2023-01-02	01:43:01	01:47:50	287836	605867abaf0023b996742de2	524518784	1	main_z	7	advance_on_keypress_ZEE	30	stimuli_target_circletriangles.svg	stimuli_distractor_trianglediamonds.svg	1	yes	57	0	1105
6.6.1	mac	2023-01-02	01:43:01	01:47:53	290103	605867abaf0023b996742de2	524518784	1	main_z	7	main_z	31	stimuli_target_circlediamonds.svg	stimuli_distractor_diamondtriangles.svg	6	yes	44	1	539
6.6.1	mac	2023-01-02	01:43:01	01:47:53	290103	605867abaf0023b996742de2	524518784	1	main_z	7	advance_on_keypress_ZEE	32	stimuli_target_circlediamonds.svg	stimuli_distractor_diamondtriangles.svg	6	yes	57	0	984
6.6.1	mac	2023-01-02	01:43:01	01:47:55	292430	605867abaf0023b996742de2	524518784	1	main_z	7	main_z	33	stimuli_distractor_diamondtriangles.svg	stimuli_target_trianglesquares.svg	30	yes	44	1	720
6.6.1	mac	2023-01-02	01:43:01	01:47:55	292430	605867abaf0023b996742de2	524518784	1	main_z	7	advance_on_keypress_ZEE	34	stimuli_distractor_diamondtriangles.svg	stimuli_target_trianglesquares.svg	30	yes	57	0	1242
6.6.1	mac	2023-01-02	01:43:01	01:47:57	294860	605867abaf0023b996742de2	524518784	1	main_z	7	main_z	35	stimuli_distractor_diamondtriangles.svg	stimuli_target_trianglecircles.svg	29	yes	44	1	538
6.6.1	mac	2023-01-02	01:43:01	01:47:57	294860	605867abaf0023b996742de2	524518784	1	main_z	7	advance_on_keypress_ZEE	36	stimuli_distractor_diamondtriangles.svg	stimuli_target_trianglecircles.svg	29	yes	57	0	1646
6.6.1	mac	2023-01-02	01:43:01	01:48:00	297603	605867abaf0023b996742de2	524518784	1	main_z	7	main_z	37	stimuli_distractor_diamondtriangles.svg	stimuli_target_circlediamonds.svg	14	yes	44	1	467
6.6.1	mac	2023-01-02	01:43:01	01:48:00	297603	605867abaf0023b996742de2	524518784	1	main_z	7	advance_on_keypress_ZEE	38	stimuli_distractor_diamondtriangles.svg	stimuli_target_circlediamonds.svg	14	yes	57	0	2043
6.6.1	mac	2023-01-02	01:43:01	01:48:04	301130	605867abaf0023b996742de2	524518784	1	main_z	7	main_z	39	stimuli_distractor_trianglediamonds.svg	stimuli_target_trianglesquares.svg	26	yes	44	1	859
6.6.1	mac	2023-01-02	01:43:01	01:48:04	301130	605867abaf0023b996742de2	524518784	1	main_z	7	advance_on_keypress_ZEE	40	stimuli_distractor_trianglediamonds.svg	stimuli_target_trianglesquares.svg	26	yes	57	0	874
6.6.1	mac	2023-01-02	01:43:01	01:48:06	303111	605867abaf0023b996742de2	524518784	1	main_z	7	main_z	41	stimuli_target_trianglesquares.svg	stimuli_distractor_diamondtriangles.svg	22	yes	44	1	477
6.6.1	mac	2023-01-02	01:43:01	01:48:06	303111	605867abaf0023b996742de2	524518784	1	main_z	7	advance_on_keypress_ZEE	42	stimuli_target_trianglesquares.svg	stimuli_distractor_diamondtriangles.svg	22	yes	57	0	1643
6.6.1	mac	2023-01-02	01:43:01	01:48:08	305925	605867abaf0023b996742de2	524518784	1	main_z	7	main_z	43	stimuli_target_diamondsquares.svg	stimuli_distractor_trianglediamonds.svg	20	yes	44	1	543
6.6.1	mac	2023-01-02	01:43:01	01:48:08	305925	605867abaf0023b996742de2	524518784	1	main_z	7	advance_on_keypress_ZEE	44	stimuli_target_diamondsquares.svg	stimuli_distractor_trianglediamonds.svg	20	yes	57	0	1293
6.6.1	mac	2023-01-02	01:43:01	01:48:11	308313	605867abaf0023b996742de2	524518784	1	main_z	7	main_z	45	stimuli_target_diamondcircles.svg	stimuli_distractor_trianglediamonds.svg	19	yes	44	1	457
6.6.1	mac	2023-01-02	01:43:01	01:48:11	308313	605867abaf0023b996742de2	524518784	1	main_z	7	advance_on_keypress_ZEE	46	stimuli_target_diamondcircles.svg	stimuli_distractor_trianglediamonds.svg	19	yes	57	0	964
6.6.1	mac	2023-01-02	01:43:01	01:48:14	311895	605867abaf0023b996742de2	524518784	1	main_z	7	main_z	47	stimuli_target_squaretriangles.svg	stimuli_distractor_diamondtriangles.svg	7	yes	0	0	2000
6.6.1	mac	2023-01-02	01:43:01	01:48:14	311895	605867abaf0023b996742de2	524518784	1	main_z	7	advance_on_keypress_ZEE	48	stimuli_target_squaretriangles.svg	stimuli_distractor_diamondtriangles.svg	7	yes	57	0	674
6.6.1	mac	2023-01-02	01:43:01	01:48:18	315217	605867abaf0023b996742de2	524518784	1	main_z	7	main_z	49	stimuli_distractor_trianglediamonds.svg	stimuli_distractor_trianglediamonds.svg	34	no	0	1	2000
6.6.1	mac	2023-01-02	01:43:01	01:48:18	315217	605867abaf0023b996742de2	524518784	1	main_z	7	advance_on_keypress_ZEE	50	stimuli_distractor_trianglediamonds.svg	stimuli_distractor_trianglediamonds.svg	34	no	57	0	580
6.6.1	mac	2023-01-02	01:43:01	01:48:19	316815	605867abaf0023b996742de2	524518784	1	main_z	7	main_z	51	stimuli_distractor_trianglediamonds.svg	stimuli_target_diamondsquares.svg	28	yes	44	1	390
6.6.1	mac	2023-01-02	01:43:01	01:48:19	316815	605867abaf0023b996742de2	524518784	1	main_z	7	advance_on_keypress_ZEE	52	stimuli_distractor_trianglediamonds.svg	stimuli_target_diamondsquares.svg	28	yes	57	0	875
6.6.1	mac	2023-01-02	01:43:01	01:48:21	318709	605867abaf0023b996742de2	524518784	1	main_z	7	main_z	53	stimuli_target_circlediamonds.svg	stimuli_distractor_trianglediamonds.svg	2	yes	44	1	406
6.6.1	mac	2023-01-02	01:43:01	01:48:21	318709	605867abaf0023b996742de2	524518784	1	main_z	7	advance_on_keypress_ZEE	54	stimuli_target_circlediamonds.svg	stimuli_distractor_trianglediamonds.svg	2	yes	57	0	915
6.6.1	mac	2023-01-02	01:43:01	01:48:23	320676	605867abaf0023b996742de2	524518784	1	main_z	7	main_z	55	stimuli_target_squarediamonds.svg	stimuli_distractor_diamondtriangles.svg	8	yes	44	1	420
6.6.1	mac	2023-01-02	01:43:01	01:48:23	320676	605867abaf0023b996742de2	524518784	1	main_z	7	advance_on_keypress_ZEE	56	stimuli_target_squarediamonds.svg	stimuli_distractor_diamondtriangles.svg	8	yes	57	0	1335
6.6.1	mac	2023-01-02	01:43:01	01:48:26	323309	605867abaf0023b996742de2	524518784	1	main_z	7	main_z	57	stimuli_distractor_trianglediamonds.svg	stimuli_target_squaretriangles.svg	11	yes	44	1	674
6.6.1	mac	2023-01-02	01:43:01	01:48:26	323309	605867abaf0023b996742de2	524518784	1	main_z	7	advance_on_keypress_ZEE	58	stimuli_distractor_trianglediamonds.svg	stimuli_target_squaretriangles.svg	11	yes	57	0	625
6.6.1	mac	2023-01-02	01:43:01	01:48:28	324986	605867abaf0023b996742de2	524518784	1	main_z	7	main_z	59	stimuli_distractor_diamondtriangles.svg	stimuli_target_squarediamonds.svg	16	yes	44	1	426
6.6.1	mac	2023-01-02	01:43:01	01:48:28	324986	605867abaf0023b996742de2	524518784	1	main_z	7	advance_on_keypress_ZEE	60	stimuli_distractor_diamondtriangles.svg	stimuli_target_squarediamonds.svg	16	yes	57	0	1462
6.6.1	mac	2023-01-02	01:43:01	01:48:32	329076	605867abaf0023b996742de2	524518784	1	main_z	7	main_z	61	stimuli_distractor_trianglediamonds.svg	stimuli_distractor_trianglediamonds.svg	33	no	0	1	2000
6.6.1	mac	2023-01-02	01:43:01	01:48:32	329076	605867abaf0023b996742de2	524518784	1	main_z	7	advance_on_keypress_ZEE	62	stimuli_distractor_trianglediamonds.svg	stimuli_distractor_trianglediamonds.svg	33	no	57	0	973
6.6.1	mac	2023-01-02	01:43:01	01:48:34	331218	605867abaf0023b996742de2	524518784	1	main_z	7	main_z	63	stimuli_distractor_trianglediamonds.svg	stimuli_distractor_diamondtriangles.svg	36	no	44	0	535
6.6.1	mac	2023-01-02	01:43:01	01:48:34	331218	605867abaf0023b996742de2	524518784	1	main_z	7	advance_on_keypress_ZEE	64	stimuli_distractor_trianglediamonds.svg	stimuli_distractor_diamondtriangles.svg	36	no	57	0	2276
6.6.1	mac	2023-01-02	01:43:01	01:48:37	334613	605867abaf0023b996742de2	524518784	1	main_z	7	main_z	65	stimuli_target_diamondsquares.svg	stimuli_distractor_diamondtriangles.svg	24	yes	44	1	488
6.6.1	mac	2023-01-02	01:43:01	01:48:37	334613	605867abaf0023b996742de2	524518784	1	main_z	7	advance_on_keypress_ZEE	66	stimuli_target_diamondsquares.svg	stimuli_distractor_diamondtriangles.svg	24	yes	57	0	870
6.6.1	mac	2023-01-02	01:43:01	01:48:39	336650	605867abaf0023b996742de2	524518784	1	main_z	7	main_z	67	stimuli_distractor_trianglediamonds.svg	stimuli_target_diamondcircles.svg	27	yes	44	1	535
6.6.1	mac	2023-01-02	01:43:01	01:48:39	336650	605867abaf0023b996742de2	524518784	1	main_z	7	advance_on_keypress_ZEE	68	stimuli_distractor_trianglediamonds.svg	stimuli_target_diamondcircles.svg	27	yes	57	0	1138
6.6.1	mac	2023-01-02	01:43:01	01:48:41	338826	605867abaf0023b996742de2	524518784	1	main_z	7	main_z	69	stimuli_distractor_diamondtriangles.svg	stimuli_target_diamondsquares.svg	32	yes	44	1	407
6.6.1	mac	2023-01-02	01:43:01	01:48:41	338826	605867abaf0023b996742de2	524518784	1	main_z	7	advance_on_keypress_ZEE	70	stimuli_distractor_diamondtriangles.svg	stimuli_target_diamondsquares.svg	32	yes	57	0	1058
6.6.1	mac	2023-01-02	01:43:01	01:48:44	340977	605867abaf0023b996742de2	524518784	1	main_z	7	main_z	71	stimuli_target_trianglecircles.svg	stimuli_distractor_trianglediamonds.svg	17	yes	44	1	461
6.6.1	mac	2023-01-02	01:43:01	01:48:44	340977	605867abaf0023b996742de2	524518784	1	main_z	7	advance_on_keypress_ZEE	72	stimuli_target_trianglecircles.svg	stimuli_distractor_trianglediamonds.svg	17	yes	57	0	1406
6.6.1	mac	2023-01-02	01:43:01	01:48:48	345015	605867abaf0023b996742de2	524518784	1	main_z	7	main_z	73	stimuli_distractor_diamondtriangles.svg	stimuli_distractor_trianglediamonds.svg	37	no	0	1	2000
6.6.1	mac	2023-01-02	01:43:01	01:48:48	345015	605867abaf0023b996742de2	524518784	1	main_z	7	advance_on_keypress_ZEE	74	stimuli_distractor_diamondtriangles.svg	stimuli_distractor_trianglediamonds.svg	37	no	57	0	646
6.6.1	mac	2023-01-02	01:43:01	01:48:49	346724	605867abaf0023b996742de2	524518784	1	main_z	7	main_z	75	stimuli_target_diamondcircles.svg	stimuli_distractor_diamondtriangles.svg	23	yes	44	1	420
6.6.1	mac	2023-01-02	01:43:01	01:48:49	346724	605867abaf0023b996742de2	524518784	1	main_z	7	advance_on_keypress_ZEE	76	stimuli_target_diamondcircles.svg	stimuli_distractor_diamondtriangles.svg	23	yes	57	0	1288
6.6.1	mac	2023-01-02	01:43:01	01:48:52	349018	605867abaf0023b996742de2	524518784	1	main_z	7	main_z	77	stimuli_distractor_trianglediamonds.svg	stimuli_target_circlediamonds.svg	10	yes	44	1	372
6.6.1	mac	2023-01-02	01:43:01	01:48:52	349018	605867abaf0023b996742de2	524518784	1	main_z	7	advance_on_keypress_ZEE	78	stimuli_distractor_trianglediamonds.svg	stimuli_target_circlediamonds.svg	10	yes	57	0	1061
6.6.1	mac	2023-01-02	01:43:01	01:48:54	351032	605867abaf0023b996742de2	524518784	1	main_z	7	main_z	79	stimuli_target_squaretriangles.svg	stimuli_distractor_trianglediamonds.svg	3	yes	44	1	319
6.6.1	mac	2023-01-02	01:43:01	01:48:54	351032	605867abaf0023b996742de2	524518784	1	main_z	7	advance_on_keypress_ZEE	80	stimuli_target_squaretriangles.svg	stimuli_distractor_trianglediamonds.svg	3	yes	57	0	2010
6.6.1	mac	2023-01-02	01:43:01	01:48:57	354093	605867abaf0023b996742de2	524518784	1	main_z	7	main_z	81	stimuli_target_diamondcircles.svg	stimuli_distractor_trianglediamonds.svg	19	yes	44	1	418
6.6.1	mac	2023-01-02	01:43:01	01:48:57	354093	605867abaf0023b996742de2	524518784	1	main_z	7	advance_on_keypress_ZEE	82	stimuli_target_diamondcircles.svg	stimuli_distractor_trianglediamonds.svg	19	yes	57	0	2328
6.6.1	mac	2023-01-02	01:43:01	01:49:00	357358	605867abaf0023b996742de2	524518784	1	main_z	7	main_z	83	stimuli_target_circletriangles.svg	stimuli_distractor_diamondtriangles.svg	5	yes	44	1	304
6.6.1	mac	2023-01-02	01:43:01	01:49:00	357358	605867abaf0023b996742de2	524518784	1	main_z	7	advance_on_keypress_ZEE	84	stimuli_target_circletriangles.svg	stimuli_distractor_diamondtriangles.svg	5	yes	57	0	1057
6.6.1	mac	2023-01-02	01:43:01	01:49:02	359372	605867abaf0023b996742de2	524518784	1	main_z	7	main_z	85	stimuli_distractor_diamondtriangles.svg	stimuli_target_diamondcircles.svg	31	yes	44	1	329
6.6.1	mac	2023-01-02	01:43:01	01:49:02	359372	605867abaf0023b996742de2	524518784	1	main_z	7	advance_on_keypress_ZEE	86	stimuli_distractor_diamondtriangles.svg	stimuli_target_diamondcircles.svg	31	yes	57	0	1082
6.6.1	mac	2023-01-02	01:43:01	01:49:04	361585	605867abaf0023b996742de2	524518784	1	main_z	7	main_z	87	stimuli_target_diamondcircles.svg	stimuli_distractor_diamondtriangles.svg	23	yes	44	1	492
6.6.1	mac	2023-01-02	01:43:01	01:49:04	361585	605867abaf0023b996742de2	524518784	1	main_z	7	advance_on_keypress_ZEE	88	stimuli_target_diamondcircles.svg	stimuli_distractor_diamondtriangles.svg	23	yes	57	0	1235
6.6.1	mac	2023-01-02	01:43:01	01:49:06	363719	605867abaf0023b996742de2	524518784	1	main_z	7	main_z	89	stimuli_distractor_trianglediamonds.svg	stimuli_target_circlediamonds.svg	10	yes	44	1	280
6.6.1	mac	2023-01-02	01:43:01	01:49:06	363719	605867abaf0023b996742de2	524518784	1	main_z	7	advance_on_keypress_ZEE	90	stimuli_distractor_trianglediamonds.svg	stimuli_target_circlediamonds.svg	10	yes	57	0	1523
6.6.1	mac	2023-01-02	01:43:01	01:49:09	366306	605867abaf0023b996742de2	524518784	1	main_z	7	main_z	91	stimuli_distractor_trianglediamonds.svg	stimuli_target_diamondsquares.svg	28	yes	44	1	434
6.6.1	mac	2023-01-02	01:43:01	01:49:09	366306	605867abaf0023b996742de2	524518784	1	main_z	7	advance_on_keypress_ZEE	92	stimuli_distractor_trianglediamonds.svg	stimuli_target_diamondsquares.svg	28	yes	57	0	1256
6.6.1	mac	2023-01-02	01:43:01	01:49:11	368788	605867abaf0023b996742de2	524518784	1	main_z	7	main_z	93	stimuli_distractor_trianglediamonds.svg	stimuli_target_squarediamonds.svg	12	yes	44	1	593
6.6.1	mac	2023-01-02	01:43:01	01:49:11	368788	605867abaf0023b996742de2	524518784	1	main_z	7	advance_on_keypress_ZEE	94	stimuli_distractor_trianglediamonds.svg	stimuli_target_squarediamonds.svg	12	yes	57	0	1574
6.6.1	mac	2023-01-02	01:43:01	01:49:14	371423	605867abaf0023b996742de2	524518784	1	main_z	7	main_z	95	stimuli_target_trianglesquares.svg	stimuli_distractor_diamondtriangles.svg	22	yes	44	1	442
6.6.1	mac	2023-01-02	01:43:01	01:49:14	371423	605867abaf0023b996742de2	524518784	1	main_z	7	advance_on_keypress_ZEE	96	stimuli_target_trianglesquares.svg	stimuli_distractor_diamondtriangles.svg	22	yes	57	0	993
6.6.1	mac	2023-01-02	01:43:01	01:49:16	373383	605867abaf0023b996742de2	524518784	1	main_z	7	main_z	97	stimuli_distractor_diamondtriangles.svg	stimuli_target_circletriangles.svg	13	yes	44	1	352
6.6.1	mac	2023-01-02	01:43:01	01:49:16	373383	605867abaf0023b996742de2	524518784	1	main_z	7	advance_on_keypress_ZEE	98	stimuli_distractor_diamondtriangles.svg	stimuli_target_circletriangles.svg	13	yes	57	0	1028
6.6.1	mac	2023-01-02	01:43:01	01:49:18	375367	605867abaf0023b996742de2	524518784	1	main_z	7	main_z	99	stimuli_target_squaretriangles.svg	stimuli_distractor_trianglediamonds.svg	3	yes	44	1	333
6.6.1	mac	2023-01-02	01:43:01	01:49:18	375367	605867abaf0023b996742de2	524518784	1	main_z	7	advance_on_keypress_ZEE	100	stimuli_target_squaretriangles.svg	stimuli_distractor_trianglediamonds.svg	3	yes	57	0	1331
6.6.1	mac	2023-01-02	01:43:01	01:49:22	379320	605867abaf0023b996742de2	524518784	1	main_z	7	main_z	101	stimuli_distractor_trianglediamonds.svg	stimuli_distractor_trianglediamonds.svg	34	no	0	1	2000
6.6.1	mac	2023-01-02	01:43:01	01:49:22	379320	605867abaf0023b996742de2	524518784	1	main_z	7	advance_on_keypress_ZEE	102	stimuli_distractor_trianglediamonds.svg	stimuli_distractor_trianglediamonds.svg	34	no	57	0	641
6.6.1	mac	2023-01-02	01:43:01	01:49:24	380988	605867abaf0023b996742de2	524518784	1	main_z	7	main_z	103	stimuli_distractor_trianglediamonds.svg	stimuli_target_circletriangles.svg	9	yes	44	1	396
6.6.1	mac	2023-01-02	01:43:01	01:49:24	380988	605867abaf0023b996742de2	524518784	1	main_z	7	advance_on_keypress_ZEE	104	stimuli_distractor_trianglediamonds.svg	stimuli_target_circletriangles.svg	9	yes	57	0	1156
6.6.1	mac	2023-01-02	01:43:01	01:49:26	383218	605867abaf0023b996742de2	524518784	1	main_z	7	main_z	105	stimuli_target_trianglecircles.svg	stimuli_distractor_diamondtriangles.svg	21	yes	44	1	441
6.6.1	mac	2023-01-02	01:43:01	01:49:26	383218	605867abaf0023b996742de2	524518784	1	main_z	7	advance_on_keypress_ZEE	106	stimuli_target_trianglecircles.svg	stimuli_distractor_diamondtriangles.svg	21	yes	57	0	1363
6.6.1	mac	2023-01-02	01:43:01	01:49:28	385591	605867abaf0023b996742de2	524518784	1	main_z	7	main_z	107	stimuli_target_squarediamonds.svg	stimuli_distractor_trianglediamonds.svg	4	yes	44	1	392
6.6.1	mac	2023-01-02	01:43:01	01:49:28	385591	605867abaf0023b996742de2	524518784	1	main_z	7	advance_on_keypress_ZEE	108	stimuli_target_squarediamonds.svg	stimuli_distractor_trianglediamonds.svg	4	yes	57	0	1214
6.6.1	mac	2023-01-02	01:43:01	01:49:30	387772	605867abaf0023b996742de2	524518784	1	main_z	7	main_z	109	stimuli_target_diamondsquares.svg	stimuli_distractor_trianglediamonds.svg	20	yes	44	1	327
6.6.1	mac	2023-01-02	01:43:01	01:49:30	387772	605867abaf0023b996742de2	524518784	1	main_z	7	advance_on_keypress_ZEE	110	stimuli_target_diamondsquares.svg	stimuli_distractor_trianglediamonds.svg	20	yes	57	0	1015
6.6.1	mac	2023-01-02	01:43:01	01:49:32	389764	605867abaf0023b996742de2	524518784	1	main_z	7	main_z	111	stimuli_distractor_diamondtriangles.svg	stimuli_distractor_trianglediamonds.svg	38	no	44	0	351
6.6.1	mac	2023-01-02	01:43:01	01:49:32	389764	605867abaf0023b996742de2	524518784	1	main_z	7	advance_on_keypress_ZEE	112	stimuli_distractor_diamondtriangles.svg	stimuli_distractor_trianglediamonds.svg	38	no	57	0	1179
6.6.1	mac	2023-01-02	01:43:01	01:49:36	393564	605867abaf0023b996742de2	524518784	1	main_z	7	main_z	113	stimuli_distractor_diamondtriangles.svg	stimuli_target_diamondsquares.svg	32	yes	0	0	2000
6.6.1	mac	2023-01-02	01:43:01	01:49:36	393564	605867abaf0023b996742de2	524518784	1	main_z	7	advance_on_keypress_ZEE	114	stimuli_distractor_diamondtriangles.svg	stimuli_target_diamondsquares.svg	32	yes	57	0	585
6.6.1	mac	2023-01-02	01:43:01	01:49:38	395142	605867abaf0023b996742de2	524518784	1	main_z	7	main_z	115	stimuli_distractor_diamondtriangles.svg	stimuli_target_trianglecircles.svg	29	yes	44	1	356
6.6.1	mac	2023-01-02	01:43:01	01:49:38	395142	605867abaf0023b996742de2	524518784	1	main_z	7	advance_on_keypress_ZEE	116	stimuli_distractor_diamondtriangles.svg	stimuli_target_trianglecircles.svg	29	yes	57	0	777
6.6.1	mac	2023-01-02	01:43:01	01:49:39	396863	605867abaf0023b996742de2	524518784	1	main_z	7	main_z	117	stimuli_target_circlediamonds.svg	stimuli_distractor_trianglediamonds.svg	2	yes	44	1	315
6.6.1	mac	2023-01-02	01:43:01	01:49:39	396863	605867abaf0023b996742de2	524518784	1	main_z	7	advance_on_keypress_ZEE	118	stimuli_target_circlediamonds.svg	stimuli_distractor_trianglediamonds.svg	2	yes	57	0	910
6.6.1	mac	2023-01-02	01:43:01	01:49:41	398752	605867abaf0023b996742de2	524518784	1	main_z	7	main_z	119	stimuli_distractor_diamondtriangles.svg	stimuli_distractor_diamondtriangles.svg	40	no	44	0	336
6.6.1	mac	2023-01-02	01:43:01	01:49:41	398752	605867abaf0023b996742de2	524518784	1	main_z	7	advance_on_keypress_ZEE	120	stimuli_distractor_diamondtriangles.svg	stimuli_distractor_diamondtriangles.svg	40	no	57	0	1328
6.6.1	mac	2023-01-02	01:43:01	01:49:44	401028	605867abaf0023b996742de2	524518784	1	main_z	7	main_z	121	stimuli_target_circlediamonds.svg	stimuli_distractor_diamondtriangles.svg	6	yes	44	1	324
6.6.1	mac	2023-01-02	01:43:01	01:49:44	401028	605867abaf0023b996742de2	524518784	1	main_z	7	advance_on_keypress_ZEE	122	stimuli_target_circlediamonds.svg	stimuli_distractor_diamondtriangles.svg	6	yes	57	0	1083
6.6.1	mac	2023-01-02	01:43:01	01:49:46	403085	605867abaf0023b996742de2	524518784	1	main_z	7	main_z	123	stimuli_target_squarediamonds.svg	stimuli_distractor_diamondtriangles.svg	8	yes	44	1	348
6.6.1	mac	2023-01-02	01:43:01	01:49:46	403085	605867abaf0023b996742de2	524518784	1	main_z	7	advance_on_keypress_ZEE	124	stimuli_target_squarediamonds.svg	stimuli_distractor_diamondtriangles.svg	8	yes	57	0	1007
6.6.1	mac	2023-01-02	01:43:01	01:49:48	405338	605867abaf0023b996742de2	524518784	1	main_z	7	main_z	125	stimuli_target_circletriangles.svg	stimuli_distractor_trianglediamonds.svg	1	yes	44	1	614
6.6.1	mac	2023-01-02	01:43:01	01:49:48	405338	605867abaf0023b996742de2	524518784	1	main_z	7	advance_on_keypress_ZEE	126	stimuli_target_circletriangles.svg	stimuli_distractor_trianglediamonds.svg	1	yes	57	0	1636
6.6.1	mac	2023-01-02	01:43:01	01:49:51	408228	605867abaf0023b996742de2	524518784	1	main_z	7	main_z	127	stimuli_distractor_trianglediamonds.svg	stimuli_target_trianglesquares.svg	26	yes	44	1	609
6.6.1	mac	2023-01-02	01:43:01	01:49:51	408228	605867abaf0023b996742de2	524518784	1	main_z	7	advance_on_keypress_ZEE	128	stimuli_distractor_trianglediamonds.svg	stimuli_target_trianglesquares.svg	26	yes	57	0	1197
6.6.1	mac	2023-01-02	01:43:01	01:49:53	410334	605867abaf0023b996742de2	524518784	1	main_z	7	main_z	129	stimuli_distractor_trianglediamonds.svg	stimuli_target_squaretriangles.svg	11	yes	44	1	283
6.6.1	mac	2023-01-02	01:43:01	01:49:53	410334	605867abaf0023b996742de2	524518784	1	main_z	7	advance_on_keypress_ZEE	130	stimuli_distractor_trianglediamonds.svg	stimuli_target_squaretriangles.svg	11	yes	57	0	1843
6.6.1	mac	2023-01-02	01:43:01	01:49:56	413080	605867abaf0023b996742de2	524518784	1	main_z	7	main_z	131	stimuli_distractor_trianglediamonds.svg	stimuli_target_trianglecircles.svg	25	yes	44	1	275
6.6.1	mac	2023-01-02	01:43:01	01:49:56	413080	605867abaf0023b996742de2	524518784	1	main_z	7	advance_on_keypress_ZEE	132	stimuli_distractor_trianglediamonds.svg	stimuli_target_trianglecircles.svg	25	yes	57	0	861
6.6.1	mac	2023-01-02	01:43:01	01:49:57	414832	605867abaf0023b996742de2	524518784	1	main_z	7	main_z	133	stimuli_target_trianglecircles.svg	stimuli_distractor_trianglediamonds.svg	17	yes	44	1	265
6.6.1	mac	2023-01-02	01:43:01	01:49:57	414832	605867abaf0023b996742de2	524518784	1	main_z	7	advance_on_keypress_ZEE	134	stimuli_target_trianglecircles.svg	stimuli_distractor_trianglediamonds.svg	17	yes	57	0	914
6.6.1	mac	2023-01-02	01:43:01	01:49:59	416676	605867abaf0023b996742de2	524518784	1	main_z	7	main_z	135	stimuli_distractor_diamondtriangles.svg	stimuli_distractor_diamondtriangles.svg	39	no	44	0	293
6.6.1	mac	2023-01-02	01:43:01	01:49:59	416676	605867abaf0023b996742de2	524518784	1	main_z	7	advance_on_keypress_ZEE	136	stimuli_distractor_diamondtriangles.svg	stimuli_distractor_diamondtriangles.svg	39	no	57	0	811
6.6.1	mac	2023-01-02	01:43:01	01:50:03	420117	605867abaf0023b996742de2	524518784	1	main_z	7	main_z	137	stimuli_distractor_trianglediamonds.svg	stimuli_distractor_diamondtriangles.svg	35	no	0	1	2000
6.6.1	mac	2023-01-02	01:43:01	01:50:03	420117	605867abaf0023b996742de2	524518784	1	main_z	7	advance_on_keypress_ZEE	138	stimuli_distractor_trianglediamonds.svg	stimuli_distractor_diamondtriangles.svg	35	no	57	0	593
6.6.1	mac	2023-01-02	01:43:01	01:50:04	421563	605867abaf0023b996742de2	524518784	1	main_z	7	main_z	139	stimuli_distractor_trianglediamonds.svg	stimuli_target_diamondcircles.svg	27	yes	44	1	220
6.6.1	mac	2023-01-02	01:43:01	01:50:04	421563	605867abaf0023b996742de2	524518784	1	main_z	7	advance_on_keypress_ZEE	140	stimuli_distractor_trianglediamonds.svg	stimuli_target_diamondcircles.svg	27	yes	57	0	957
6.6.1	mac	2023-01-02	01:43:01	01:50:06	423435	605867abaf0023b996742de2	524518784	1	main_z	7	main_z	141	stimuli_target_trianglesquares.svg	stimuli_distractor_trianglediamonds.svg	18	yes	44	1	278
6.6.1	mac	2023-01-02	01:43:01	01:50:06	423435	605867abaf0023b996742de2	524518784	1	main_z	7	advance_on_keypress_ZEE	142	stimuli_target_trianglesquares.svg	stimuli_distractor_trianglediamonds.svg	18	yes	57	0	925
6.6.1	mac	2023-01-02	01:43:01	01:50:08	425224	605867abaf0023b996742de2	524518784	1	main_z	7	main_z	143	stimuli_distractor_diamondtriangles.svg	stimuli_target_circlediamonds.svg	14	yes	44	1	242
6.6.1	mac	2023-01-02	01:43:01	01:50:08	425224	605867abaf0023b996742de2	524518784	1	main_z	7	advance_on_keypress_ZEE	144	stimuli_distractor_diamondtriangles.svg	stimuli_target_circlediamonds.svg	14	yes	57	0	927
6.6.1	mac	2023-01-02	01:43:01	01:50:10	427045	605867abaf0023b996742de2	524518784	1	main_z	7	main_z	145	stimuli_distractor_diamondtriangles.svg	stimuli_target_squaretriangles.svg	15	yes	44	1	254
6.6.1	mac	2023-01-02	01:43:01	01:50:10	427045	605867abaf0023b996742de2	524518784	1	main_z	7	advance_on_keypress_ZEE	146	stimuli_distractor_diamondtriangles.svg	stimuli_target_squaretriangles.svg	15	yes	57	0	1009
6.6.1	mac	2023-01-02	01:43:01	01:50:13	430689	605867abaf0023b996742de2	524518784	1	main_z	7	main_z	147	stimuli_target_squaretriangles.svg	stimuli_distractor_diamondtriangles.svg	7	yes	0	0	2000
6.6.1	mac	2023-01-02	01:43:01	01:50:13	430689	605867abaf0023b996742de2	524518784	1	main_z	7	advance_on_keypress_ZEE	148	stimuli_target_squaretriangles.svg	stimuli_distractor_diamondtriangles.svg	7	yes	57	0	530
6.6.1	mac	2023-01-02	01:43:01	01:50:15	432083	605867abaf0023b996742de2	524518784	1	main_z	7	main_z	149	stimuli_distractor_trianglediamonds.svg	stimuli_distractor_diamondtriangles.svg	36	no	44	0	233
6.6.1	mac	2023-01-02	01:43:01	01:50:15	432083	605867abaf0023b996742de2	524518784	1	main_z	7	advance_on_keypress_ZEE	150	stimuli_distractor_trianglediamonds.svg	stimuli_distractor_diamondtriangles.svg	36	no	57	0	650
6.6.1	mac	2023-01-02	01:43:01	01:50:17	434207	605867abaf0023b996742de2	524518784	1	main_z	7	main_z	151	stimuli_distractor_diamondtriangles.svg	stimuli_target_trianglesquares.svg	30	yes	44	1	834
6.6.1	mac	2023-01-02	01:43:01	01:50:17	434207	605867abaf0023b996742de2	524518784	1	main_z	7	advance_on_keypress_ZEE	152	stimuli_distractor_diamondtriangles.svg	stimuli_target_trianglesquares.svg	30	yes	57	0	742
6.6.1	mac	2023-01-02	01:43:01	01:50:18	435826	605867abaf0023b996742de2	524518784	1	main_z	7	main_z	153	stimuli_target_diamondsquares.svg	stimuli_distractor_diamondtriangles.svg	24	yes	44	1	248
6.6.1	mac	2023-01-02	01:43:01	01:50:18	435826	605867abaf0023b996742de2	524518784	1	main_z	7	advance_on_keypress_ZEE	154	stimuli_target_diamondsquares.svg	stimuli_distractor_diamondtriangles.svg	24	yes	57	0	945
6.6.1	mac	2023-01-02	01:43:01	01:50:20	437692	605867abaf0023b996742de2	524518784	1	main_z	7	main_z	155	stimuli_distractor_diamondtriangles.svg	stimuli_target_squarediamonds.svg	16	yes	44	1	278
6.6.1	mac	2023-01-02	01:43:01	01:50:20	437692	605867abaf0023b996742de2	524518784	1	main_z	7	advance_on_keypress_ZEE	156	stimuli_distractor_diamondtriangles.svg	stimuli_target_squarediamonds.svg	16	yes	57	0	1076
6.6.1	mac	2023-01-02	01:43:01	01:50:24	441381	605867abaf0023b996742de2	524518784	1	main_z	7	main_z	157	stimuli_distractor_diamondtriangles.svg	stimuli_distractor_trianglediamonds.svg	37	no	0	1	2000
6.6.1	mac	2023-01-02	01:43:01	01:50:24	441381	605867abaf0023b996742de2	524518784	1	main_z	7	advance_on_keypress_ZEE	158	stimuli_distractor_diamondtriangles.svg	stimuli_distractor_trianglediamonds.svg	37	no	57	0	317
6.6.1	mac	2023-01-02	01:43:01	01:50:27	444334	605867abaf0023b996742de2	524518784	1	main_z	7	main_z	159	stimuli_distractor_trianglediamonds.svg	stimuli_distractor_trianglediamonds.svg	33	no	0	1	2000
6.6.1	mac	2023-01-02	01:43:01	01:50:27	444334	605867abaf0023b996742de2	524518784	1	main_z	7	advance_on_keypress_ZEE	160	stimuli_distractor_trianglediamonds.svg	stimuli_distractor_trianglediamonds.svg	33	no	57	0	688
6.6.1	mac	2023-01-02	01:43:01	01:51:03	480026	605867abaf0023b996742de2	524518784	1	practice_slash	9	practice_slash	1	stimuli_distractor_diamondtriangles.svg	stimuli_distractor_diamondtriangles.svg	13	no	53	0	584
6.6.1	mac	2023-01-02	01:43:01	01:51:03	480026	605867abaf0023b996742de2	524518784	1	practice_slash	9	advance_on_keypress_SLASH	2	stimuli_distractor_diamondtriangles.svg	stimuli_distractor_diamondtriangles.svg	13	no	57	0	665
6.6.1	mac	2023-01-02	01:43:01	01:51:07	484330	605867abaf0023b996742de2	524518784	1	practice_slash	9	practice_slash	3	stimuli_distractor_trianglediamonds.svg	stimuli_distractor_diamondtriangles.svg	16	no	0	1	2000
6.6.1	mac	2023-01-02	01:43:01	01:51:07	484330	605867abaf0023b996742de2	524518784	1	practice_slash	9	advance_on_keypress_SLASH	4	stimuli_distractor_trianglediamonds.svg	stimuli_distractor_diamondtriangles.svg	16	no	57	0	722
6.6.1	mac	2023-01-02	01:43:01	01:51:10	487122	605867abaf0023b996742de2	524518784	1	practice_slash	9	practice_slash	5	stimuli_distractor_diamondtriangles.svg	stimuli_target_trianglecircles.svg	9	yes	53	1	446
6.6.1	mac	2023-01-02	01:43:01	01:51:10	487122	605867abaf0023b996742de2	524518784	1	practice_slash	9	advance_on_keypress_SLASH	6	stimuli_distractor_diamondtriangles.svg	stimuli_target_trianglecircles.svg	9	yes	57	0	940
6.6.1	mac	2023-01-02	01:43:01	01:51:13	490605	605867abaf0023b996742de2	524518784	1	practice_slash	9	practice_slash	7	stimuli_target_squarediamonds.svg	stimuli_distractor_trianglediamonds.svg	5	yes	53	1	909
6.6.1	mac	2023-01-02	01:43:01	01:51:13	490605	605867abaf0023b996742de2	524518784	1	practice_slash	9	advance_on_keypress_SLASH	8	stimuli_target_squarediamonds.svg	stimuli_distractor_trianglediamonds.svg	5	yes	57	0	508
6.6.1	mac	2023-01-02	01:43:01	01:51:16	493341	605867abaf0023b996742de2	524518784	1	practice_slash	9	practice_slash	9	stimuli_target_diamondsquares.svg	stimuli_distractor_trianglediamonds.svg	6	yes	53	1	595
6.6.1	mac	2023-01-02	01:43:01	01:51:16	493341	605867abaf0023b996742de2	524518784	1	practice_slash	9	advance_on_keypress_SLASH	10	stimuli_target_diamondsquares.svg	stimuli_distractor_trianglediamonds.svg	6	yes	57	0	516
6.6.1	mac	2023-01-02	01:43:01	01:51:18	495852	605867abaf0023b996742de2	524518784	1	practice_slash	9	practice_slash	11	stimuli_distractor_trianglediamonds.svg	stimuli_target_circlediamonds.svg	10	yes	53	1	371
6.6.1	mac	2023-01-02	01:43:01	01:51:18	495852	605867abaf0023b996742de2	524518784	1	practice_slash	9	advance_on_keypress_SLASH	12	stimuli_distractor_trianglediamonds.svg	stimuli_target_circlediamonds.svg	10	yes	57	0	676
6.6.1	mac	2023-01-02	01:43:01	01:51:21	498484	605867abaf0023b996742de2	524518784	1	practice_slash	9	practice_slash	13	stimuli_distractor_diamondtriangles.svg	stimuli_target_diamondcircles.svg	8	yes	53	1	322
6.6.1	mac	2023-01-02	01:43:01	01:51:21	498484	605867abaf0023b996742de2	524518784	1	practice_slash	9	advance_on_keypress_SLASH	14	stimuli_distractor_diamondtriangles.svg	stimuli_target_diamondcircles.svg	8	yes	57	0	578
6.6.1	mac	2023-01-02	01:43:01	01:51:24	501063	605867abaf0023b996742de2	524518784	1	practice_slash	9	practice_slash	15	stimuli_distractor_trianglediamonds.svg	stimuli_target_squarediamonds.svg	11	yes	53	1	374
6.6.1	mac	2023-01-02	01:43:01	01:51:24	501063	605867abaf0023b996742de2	524518784	1	practice_slash	9	advance_on_keypress_SLASH	16	stimuli_distractor_trianglediamonds.svg	stimuli_target_squarediamonds.svg	11	yes	57	0	572
6.6.1	mac	2023-01-02	01:43:01	01:51:26	503524	605867abaf0023b996742de2	524518784	1	practice_slash	9	practice_slash	17	stimuli_distractor_diamondtriangles.svg	stimuli_target_circletriangles.svg	7	yes	53	1	255
6.6.1	mac	2023-01-02	01:43:01	01:51:26	503524	605867abaf0023b996742de2	524518784	1	practice_slash	9	advance_on_keypress_SLASH	18	stimuli_distractor_diamondtriangles.svg	stimuli_target_circletriangles.svg	7	yes	57	0	781
6.6.1	mac	2023-01-02	01:43:01	01:51:29	506528	605867abaf0023b996742de2	524518784	1	practice_slash	9	practice_slash	19	stimuli_target_circlediamonds.svg	stimuli_distractor_trianglediamonds.svg	4	yes	53	1	586
6.6.1	mac	2023-01-02	01:43:01	01:51:29	506528	605867abaf0023b996742de2	524518784	1	practice_slash	9	advance_on_keypress_SLASH	20	stimuli_target_circlediamonds.svg	stimuli_distractor_trianglediamonds.svg	4	yes	57	0	578
6.6.1	mac	2023-01-02	01:43:01	01:51:32	509011	605867abaf0023b996742de2	524518784	1	practice_slash	9	practice_slash	21	stimuli_distractor_trianglediamonds.svg	stimuli_distractor_trianglediamonds.svg	15	no	53	0	279
6.6.1	mac	2023-01-02	01:43:01	01:51:32	509011	605867abaf0023b996742de2	524518784	1	practice_slash	9	advance_on_keypress_SLASH	22	stimuli_distractor_trianglediamonds.svg	stimuli_distractor_trianglediamonds.svg	15	no	57	0	647
6.6.1	mac	2023-01-02	01:43:01	01:51:36	513284	605867abaf0023b996742de2	524518784	1	practice_slash	9	practice_slash	23	stimuli_distractor_diamondtriangles.svg	stimuli_distractor_trianglediamonds.svg	14	no	0	1	2000
6.6.1	mac	2023-01-02	01:43:01	01:51:36	513284	605867abaf0023b996742de2	524518784	1	practice_slash	9	advance_on_keypress_SLASH	24	stimuli_distractor_diamondtriangles.svg	stimuli_distractor_trianglediamonds.svg	14	no	57	0	452
6.6.1	mac	2023-01-02	01:43:01	01:51:38	515831	605867abaf0023b996742de2	524518784	1	practice_slash	9	practice_slash	25	stimuli_target_circlediamonds.svg	stimuli_distractor_diamondtriangles.svg	1	yes	53	1	470
6.6.1	mac	2023-01-02	01:43:01	01:51:38	515831	605867abaf0023b996742de2	524518784	1	practice_slash	9	advance_on_keypress_SLASH	26	stimuli_target_circlediamonds.svg	stimuli_distractor_diamondtriangles.svg	1	yes	57	0	805
6.6.1	mac	2023-01-02	01:43:01	01:51:41	518692	605867abaf0023b996742de2	524518784	1	practice_slash	9	practice_slash	27	stimuli_target_squarediamonds.svg	stimuli_distractor_diamondtriangles.svg	2	yes	53	1	424
6.6.1	mac	2023-01-02	01:43:01	01:51:41	518692	605867abaf0023b996742de2	524518784	1	practice_slash	9	advance_on_keypress_SLASH	28	stimuli_target_squarediamonds.svg	stimuli_distractor_diamondtriangles.svg	2	yes	57	0	594
6.6.1	mac	2023-01-02	01:43:01	01:51:44	521216	605867abaf0023b996742de2	524518784	1	practice_slash	9	practice_slash	29	stimuli_distractor_trianglediamonds.svg	stimuli_target_diamondcircles.svg	12	yes	53	1	299
6.6.1	mac	2023-01-02	01:43:01	01:51:44	521216	605867abaf0023b996742de2	524518784	1	practice_slash	9	advance_on_keypress_SLASH	30	stimuli_distractor_trianglediamonds.svg	stimuli_target_diamondcircles.svg	12	yes	57	0	590
6.6.1	mac	2023-01-02	01:43:01	01:51:48	525427	605867abaf0023b996742de2	524518784	1	practice_slash	9	practice_slash	31	stimuli_target_diamondsquares.svg	stimuli_distractor_diamondtriangles.svg	3	yes	0	0	2000
6.6.1	mac	2023-01-02	01:43:01	01:51:48	525427	605867abaf0023b996742de2	524518784	1	practice_slash	9	advance_on_keypress_SLASH	32	stimuli_target_diamondsquares.svg	stimuli_distractor_diamondtriangles.svg	3	yes	57	0	402
6.6.1	mac	2023-01-02	01:43:01	01:51:56	533568	605867abaf0023b996742de2	524518784	1	main_slash	11	main_slash	1	stimuli_distractor_trianglediamonds.svg	stimuli_distractor_trianglediamonds.svg	33	no	53	0	484
6.6.1	mac	2023-01-02	01:43:01	01:51:56	533568	605867abaf0023b996742de2	524518784	1	main_slash	11	advance_on_keypress_SLASH	2	stimuli_distractor_trianglediamonds.svg	stimuli_distractor_trianglediamonds.svg	33	no	57	0	1983
6.6.1	mac	2023-01-02	01:43:01	01:51:59	536483	605867abaf0023b996742de2	524518784	1	main_slash	11	main_slash	3	stimuli_target_circlediamonds.svg	stimuli_distractor_trianglediamonds.svg	2	yes	53	1	294
6.6.1	mac	2023-01-02	01:43:01	01:51:59	536483	605867abaf0023b996742de2	524518784	1	main_slash	11	advance_on_keypress_SLASH	4	stimuli_target_circlediamonds.svg	stimuli_distractor_trianglediamonds.svg	2	yes	57	0	862
6.6.1	mac	2023-01-02	01:43:01	01:52:01	538418	605867abaf0023b996742de2	524518784	1	main_slash	11	main_slash	5	stimuli_target_squarediamonds.svg	stimuli_distractor_trianglediamonds.svg	4	yes	53	1	430
6.6.1	mac	2023-01-02	01:43:01	01:52:01	538418	605867abaf0023b996742de2	524518784	1	main_slash	11	advance_on_keypress_SLASH	6	stimuli_target_squarediamonds.svg	stimuli_distractor_trianglediamonds.svg	4	yes	57	0	1118
6.6.1	mac	2023-01-02	01:43:01	01:52:03	540532	605867abaf0023b996742de2	524518784	1	main_slash	11	main_slash	7	stimuli_distractor_diamondtriangles.svg	stimuli_target_circletriangles.svg	13	yes	53	1	379
6.6.1	mac	2023-01-02	01:43:01	01:52:03	540532	605867abaf0023b996742de2	524518784	1	main_slash	11	advance_on_keypress_SLASH	8	stimuli_distractor_diamondtriangles.svg	stimuli_target_circletriangles.svg	13	yes	57	0	1573
6.6.1	mac	2023-01-02	01:43:01	01:52:06	543307	605867abaf0023b996742de2	524518784	1	main_slash	11	main_slash	9	stimuli_distractor_trianglediamonds.svg	stimuli_target_diamondsquares.svg	28	yes	53	1	577
6.6.1	mac	2023-01-02	01:43:01	01:52:06	543307	605867abaf0023b996742de2	524518784	1	main_slash	11	advance_on_keypress_SLASH	10	stimuli_distractor_trianglediamonds.svg	stimuli_target_diamondsquares.svg	28	yes	57	0	1143
6.6.1	mac	2023-01-02	01:43:01	01:52:08	545512	605867abaf0023b996742de2	524518784	1	main_slash	11	main_slash	11	stimuli_target_diamondsquares.svg	stimuli_distractor_trianglediamonds.svg	20	yes	53	1	426
6.6.1	mac	2023-01-02	01:43:01	01:52:08	545512	605867abaf0023b996742de2	524518784	1	main_slash	11	advance_on_keypress_SLASH	12	stimuli_target_diamondsquares.svg	stimuli_distractor_trianglediamonds.svg	20	yes	57	0	1071
6.6.1	mac	2023-01-02	01:43:01	01:52:10	547634	605867abaf0023b996742de2	524518784	1	main_slash	11	main_slash	13	stimuli_target_trianglesquares.svg	stimuli_distractor_diamondtriangles.svg	22	yes	53	1	426
6.6.1	mac	2023-01-02	01:43:01	01:52:10	547634	605867abaf0023b996742de2	524518784	1	main_slash	11	advance_on_keypress_SLASH	14	stimuli_target_trianglesquares.svg	stimuli_distractor_diamondtriangles.svg	22	yes	57	0	1236
6.6.1	mac	2023-01-02	01:43:01	01:52:14	551505	605867abaf0023b996742de2	524518784	1	main_slash	11	main_slash	15	stimuli_distractor_diamondtriangles.svg	stimuli_distractor_trianglediamonds.svg	38	no	0	1	2000
6.6.1	mac	2023-01-02	01:43:01	01:52:14	551505	605867abaf0023b996742de2	524518784	1	main_slash	11	advance_on_keypress_SLASH	16	stimuli_distractor_diamondtriangles.svg	stimuli_distractor_trianglediamonds.svg	38	no	57	0	633
6.6.1	mac	2023-01-02	01:43:01	01:52:16	553415	605867abaf0023b996742de2	524518784	1	main_slash	11	main_slash	17	stimuli_distractor_diamondtriangles.svg	stimuli_target_trianglesquares.svg	30	yes	53	1	649
6.6.1	mac	2023-01-02	01:43:01	01:52:16	553415	605867abaf0023b996742de2	524518784	1	main_slash	11	advance_on_keypress_SLASH	18	stimuli_distractor_diamondtriangles.svg	stimuli_target_trianglesquares.svg	30	yes	57	0	758
6.6.1	mac	2023-01-02	01:43:01	01:52:18	555271	605867abaf0023b996742de2	524518784	1	main_slash	11	main_slash	19	stimuli_distractor_diamondtriangles.svg	stimuli_target_trianglecircles.svg	29	yes	53	1	480
6.6.1	mac	2023-01-02	01:43:01	01:52:18	555271	605867abaf0023b996742de2	524518784	1	main_slash	11	advance_on_keypress_SLASH	20	stimuli_distractor_diamondtriangles.svg	stimuli_target_trianglecircles.svg	29	yes	57	0	1514
6.6.1	mac	2023-01-02	01:43:01	01:52:21	557983	605867abaf0023b996742de2	524518784	1	main_slash	11	main_slash	21	stimuli_target_squarediamonds.svg	stimuli_distractor_diamondtriangles.svg	8	yes	53	1	577
6.6.1	mac	2023-01-02	01:43:01	01:52:21	557983	605867abaf0023b996742de2	524518784	1	main_slash	11	advance_on_keypress_SLASH	22	stimuli_target_squarediamonds.svg	stimuli_distractor_diamondtriangles.svg	8	yes	57	0	940
6.6.1	mac	2023-01-02	01:43:01	01:52:23	559999	605867abaf0023b996742de2	524518784	1	main_slash	11	main_slash	23	stimuli_target_circletriangles.svg	stimuli_distractor_diamondtriangles.svg	5	yes	53	1	451
6.6.1	mac	2023-01-02	01:43:01	01:52:23	559999	605867abaf0023b996742de2	524518784	1	main_slash	11	advance_on_keypress_SLASH	24	stimuli_target_circletriangles.svg	stimuli_distractor_diamondtriangles.svg	5	yes	57	0	931
6.6.1	mac	2023-01-02	01:43:01	01:52:25	562129	605867abaf0023b996742de2	524518784	1	main_slash	11	main_slash	25	stimuli_distractor_diamondtriangles.svg	stimuli_target_diamondsquares.svg	32	yes	53	1	571
6.6.1	mac	2023-01-02	01:43:01	01:52:25	562129	605867abaf0023b996742de2	524518784	1	main_slash	11	advance_on_keypress_SLASH	26	stimuli_distractor_diamondtriangles.svg	stimuli_target_diamondsquares.svg	32	yes	57	0	1090
6.6.1	mac	2023-01-02	01:43:01	01:52:27	564165	605867abaf0023b996742de2	524518784	1	main_slash	11	main_slash	27	stimuli_distractor_trianglediamonds.svg	stimuli_target_squaretriangles.svg	11	yes	53	1	308
6.6.1	mac	2023-01-02	01:43:01	01:52:27	564165	605867abaf0023b996742de2	524518784	1	main_slash	11	advance_on_keypress_SLASH	28	stimuli_distractor_trianglediamonds.svg	stimuli_target_squaretriangles.svg	11	yes	57	0	2134
6.6.1	mac	2023-01-02	01:43:01	01:52:30	567238	605867abaf0023b996742de2	524518784	1	main_slash	11	main_slash	29	stimuli_target_diamondcircles.svg	stimuli_distractor_diamondtriangles.svg	23	yes	53	1	313
6.6.1	mac	2023-01-02	01:43:01	01:52:30	567238	605867abaf0023b996742de2	524518784	1	main_slash	11	advance_on_keypress_SLASH	30	stimuli_target_diamondcircles.svg	stimuli_distractor_diamondtriangles.svg	23	yes	57	0	1005
6.6.1	mac	2023-01-02	01:43:01	01:52:32	569174	605867abaf0023b996742de2	524518784	1	main_slash	11	main_slash	31	stimuli_target_diamondcircles.svg	stimuli_distractor_trianglediamonds.svg	19	yes	53	1	304
6.6.1	mac	2023-01-02	01:43:01	01:52:32	569174	605867abaf0023b996742de2	524518784	1	main_slash	11	advance_on_keypress_SLASH	32	stimuli_target_diamondcircles.svg	stimuli_distractor_trianglediamonds.svg	19	yes	57	0	1137
6.6.1	mac	2023-01-02	01:43:01	01:52:34	571306	605867abaf0023b996742de2	524518784	1	main_slash	11	main_slash	33	stimuli_target_squaretriangles.svg	stimuli_distractor_trianglediamonds.svg	3	yes	53	1	364
6.6.1	mac	2023-01-02	01:43:01	01:52:34	571306	605867abaf0023b996742de2	524518784	1	main_slash	11	advance_on_keypress_SLASH	34	stimuli_target_squaretriangles.svg	stimuli_distractor_trianglediamonds.svg	3	yes	57	0	928
6.6.1	mac	2023-01-02	01:43:01	01:52:36	573139	605867abaf0023b996742de2	524518784	1	main_slash	11	main_slash	35	stimuli_target_trianglecircles.svg	stimuli_distractor_trianglediamonds.svg	17	yes	53	1	277
6.6.1	mac	2023-01-02	01:43:01	01:52:36	573139	605867abaf0023b996742de2	524518784	1	main_slash	11	advance_on_keypress_SLASH	36	stimuli_target_trianglecircles.svg	stimuli_distractor_trianglediamonds.svg	17	yes	57	0	1562
6.6.1	mac	2023-01-02	01:43:01	01:52:38	575717	605867abaf0023b996742de2	524518784	1	main_slash	11	main_slash	37	stimuli_distractor_trianglediamonds.svg	stimuli_target_circlediamonds.svg	10	yes	53	1	367
6.6.1	mac	2023-01-02	01:43:01	01:52:38	575717	605867abaf0023b996742de2	524518784	1	main_slash	11	advance_on_keypress_SLASH	38	stimuli_distractor_trianglediamonds.svg	stimuli_target_circlediamonds.svg	10	yes	57	0	1426
6.6.1	mac	2023-01-02	01:43:01	01:52:41	578064	605867abaf0023b996742de2	524518784	1	main_slash	11	main_slash	39	stimuli_distractor_diamondtriangles.svg	stimuli_target_circlediamonds.svg	14	yes	53	1	291
6.6.1	mac	2023-01-02	01:43:01	01:52:41	578064	605867abaf0023b996742de2	524518784	1	main_slash	11	advance_on_keypress_SLASH	40	stimuli_distractor_diamondtriangles.svg	stimuli_target_circlediamonds.svg	14	yes	57	0	1356
6.6.1	mac	2023-01-02	01:43:01	01:52:43	580427	605867abaf0023b996742de2	524518784	1	main_slash	11	main_slash	41	stimuli_target_trianglesquares.svg	stimuli_distractor_trianglediamonds.svg	18	yes	53	1	371
6.6.1	mac	2023-01-02	01:43:01	01:52:43	580427	605867abaf0023b996742de2	524518784	1	main_slash	11	advance_on_keypress_SLASH	42	stimuli_target_trianglesquares.svg	stimuli_distractor_trianglediamonds.svg	18	yes	57	0	858
6.6.1	mac	2023-01-02	01:43:01	01:52:45	582156	605867abaf0023b996742de2	524518784	1	main_slash	11	main_slash	43	stimuli_target_circletriangles.svg	stimuli_distractor_trianglediamonds.svg	1	yes	53	1	242
6.6.1	mac	2023-01-02	01:43:01	01:52:45	582156	605867abaf0023b996742de2	524518784	1	main_slash	11	advance_on_keypress_SLASH	44	stimuli_target_circletriangles.svg	stimuli_distractor_trianglediamonds.svg	1	yes	57	0	1385
6.6.1	mac	2023-01-02	01:43:01	01:52:49	586162	605867abaf0023b996742de2	524518784	1	main_slash	11	main_slash	45	stimuli_distractor_trianglediamonds.svg	stimuli_distractor_diamondtriangles.svg	35	no	0	1	2000
6.6.1	mac	2023-01-02	01:43:01	01:52:49	586162	605867abaf0023b996742de2	524518784	1	main_slash	11	advance_on_keypress_SLASH	46	stimuli_distractor_trianglediamonds.svg	stimuli_distractor_diamondtriangles.svg	35	no	57	0	478
6.6.1	mac	2023-01-02	01:43:01	01:52:50	587660	605867abaf0023b996742de2	524518784	1	main_slash	11	main_slash	47	stimuli_distractor_trianglediamonds.svg	stimuli_target_circletriangles.svg	9	yes	53	1	392
6.6.1	mac	2023-01-02	01:43:01	01:52:50	587660	605867abaf0023b996742de2	524518784	1	main_slash	11	advance_on_keypress_SLASH	48	stimuli_distractor_trianglediamonds.svg	stimuli_target_circletriangles.svg	9	yes	57	0	1087
6.6.1	mac	2023-01-02	01:43:01	01:52:54	591369	605867abaf0023b996742de2	524518784	1	main_slash	11	main_slash	49	stimuli_distractor_trianglediamonds.svg	stimuli_distractor_diamondtriangles.svg	36	no	0	1	2000
6.6.1	mac	2023-01-02	01:43:01	01:52:54	591369	605867abaf0023b996742de2	524518784	1	main_slash	11	advance_on_keypress_SLASH	50	stimuli_distractor_trianglediamonds.svg	stimuli_distractor_diamondtriangles.svg	36	no	57	0	438
6.6.1	mac	2023-01-02	01:43:01	01:52:55	592844	605867abaf0023b996742de2	524518784	1	main_slash	11	main_slash	51	stimuli_distractor_diamondtriangles.svg	stimuli_target_diamondcircles.svg	31	yes	53	1	416
6.6.1	mac	2023-01-02	01:43:01	01:52:55	592844	605867abaf0023b996742de2	524518784	1	main_slash	11	advance_on_keypress_SLASH	52	stimuli_distractor_diamondtriangles.svg	stimuli_target_diamondcircles.svg	31	yes	57	0	1096
6.6.1	mac	2023-01-02	01:43:01	01:52:58	595002	605867abaf0023b996742de2	524518784	1	main_slash	11	main_slash	53	stimuli_target_trianglecircles.svg	stimuli_distractor_diamondtriangles.svg	21	yes	53	1	435
6.6.1	mac	2023-01-02	01:43:01	01:52:58	595002	605867abaf0023b996742de2	524518784	1	main_slash	11	advance_on_keypress_SLASH	54	stimuli_target_trianglecircles.svg	stimuli_distractor_diamondtriangles.svg	21	yes	57	0	1086
6.6.1	mac	2023-01-02	01:43:01	01:53:00	597111	605867abaf0023b996742de2	524518784	1	main_slash	11	main_slash	55	stimuli_distractor_trianglediamonds.svg	stimuli_target_squarediamonds.svg	12	yes	53	1	387
6.6.1	mac	2023-01-02	01:43:01	01:53:00	597111	605867abaf0023b996742de2	524518784	1	main_slash	11	advance_on_keypress_SLASH	56	stimuli_distractor_trianglediamonds.svg	stimuli_target_squarediamonds.svg	12	yes	57	0	1080
6.6.1	mac	2023-01-02	01:43:01	01:53:02	599374	605867abaf0023b996742de2	524518784	1	main_slash	11	main_slash	57	stimuli_distractor_trianglediamonds.svg	stimuli_target_diamondcircles.svg	27	yes	53	1	542
6.6.1	mac	2023-01-02	01:43:01	01:53:02	599374	605867abaf0023b996742de2	524518784	1	main_slash	11	advance_on_keypress_SLASH	58	stimuli_distractor_trianglediamonds.svg	stimuli_target_diamondcircles.svg	27	yes	57	0	860
6.6.1	mac	2023-01-02	01:43:01	01:53:04	601120	605867abaf0023b996742de2	524518784	1	main_slash	11	main_slash	59	stimuli_target_diamondsquares.svg	stimuli_distractor_diamondtriangles.svg	24	yes	53	1	262
6.6.1	mac	2023-01-02	01:43:01	01:53:04	601120	605867abaf0023b996742de2	524518784	1	main_slash	11	advance_on_keypress_SLASH	60	stimuli_target_diamondsquares.svg	stimuli_distractor_diamondtriangles.svg	24	yes	57	0	1318
6.6.1	mac	2023-01-02	01:43:01	01:53:06	603547	605867abaf0023b996742de2	524518784	1	main_slash	11	main_slash	61	stimuli_target_squaretriangles.svg	stimuli_distractor_diamondtriangles.svg	7	yes	53	1	485
6.6.1	mac	2023-01-02	01:43:01	01:53:06	603547	605867abaf0023b996742de2	524518784	1	main_slash	11	advance_on_keypress_SLASH	62	stimuli_target_squaretriangles.svg	stimuli_distractor_diamondtriangles.svg	7	yes	57	0	969
6.6.1	mac	2023-01-02	01:43:01	01:53:08	605480	605867abaf0023b996742de2	524518784	1	main_slash	11	main_slash	63	stimuli_distractor_trianglediamonds.svg	stimuli_target_trianglecircles.svg	25	yes	53	1	329
6.6.1	mac	2023-01-02	01:43:01	01:53:08	605480	605867abaf0023b996742de2	524518784	1	main_slash	11	advance_on_keypress_SLASH	64	stimuli_distractor_trianglediamonds.svg	stimuli_target_trianglecircles.svg	25	yes	57	0	1202
6.6.1	mac	2023-01-02	01:43:01	01:53:10	607642	605867abaf0023b996742de2	524518784	1	main_slash	11	main_slash	65	stimuli_distractor_trianglediamonds.svg	stimuli_target_trianglesquares.svg	26	yes	53	1	338
6.6.1	mac	2023-01-02	01:43:01	01:53:10	607642	605867abaf0023b996742de2	524518784	1	main_slash	11	advance_on_keypress_SLASH	66	stimuli_distractor_trianglediamonds.svg	stimuli_target_trianglesquares.svg	26	yes	57	0	937
6.6.1	mac	2023-01-02	01:43:01	01:53:12	609449	605867abaf0023b996742de2	524518784	1	main_slash	11	main_slash	67	stimuli_distractor_diamondtriangles.svg	stimuli_target_squaretriangles.svg	15	yes	53	1	241
6.6.1	mac	2023-01-02	01:43:01	01:53:12	609449	605867abaf0023b996742de2	524518784	1	main_slash	11	advance_on_keypress_SLASH	68	stimuli_distractor_diamondtriangles.svg	stimuli_target_squaretriangles.svg	15	yes	57	0	997
6.6.1	mac	2023-01-02	01:43:01	01:53:16	613077	605867abaf0023b996742de2	524518784	1	main_slash	11	main_slash	69	stimuli_distractor_diamondtriangles.svg	stimuli_distractor_trianglediamonds.svg	37	no	0	1	2000
6.6.1	mac	2023-01-02	01:43:01	01:53:16	613077	605867abaf0023b996742de2	524518784	1	main_slash	11	advance_on_keypress_SLASH	70	stimuli_distractor_diamondtriangles.svg	stimuli_distractor_trianglediamonds.svg	37	no	57	0	351
6.6.1	mac	2023-01-02	01:43:01	01:53:17	614466	605867abaf0023b996742de2	524518784	1	main_slash	11	main_slash	71	stimuli_target_circlediamonds.svg	stimuli_distractor_diamondtriangles.svg	6	yes	53	1	415
6.6.1	mac	2023-01-02	01:43:01	01:53:17	614466	605867abaf0023b996742de2	524518784	1	main_slash	11	advance_on_keypress_SLASH	72	stimuli_target_circlediamonds.svg	stimuli_distractor_diamondtriangles.svg	6	yes	57	0	895
6.6.1	mac	2023-01-02	01:43:01	01:53:19	616481	605867abaf0023b996742de2	524518784	1	main_slash	11	main_slash	73	stimuli_distractor_diamondtriangles.svg	stimuli_distractor_diamondtriangles.svg	40	no	53	0	505
6.6.1	mac	2023-01-02	01:43:01	01:53:19	616481	605867abaf0023b996742de2	524518784	1	main_slash	11	advance_on_keypress_SLASH	74	stimuli_distractor_diamondtriangles.svg	stimuli_distractor_diamondtriangles.svg	40	no	57	0	708
6.6.1	mac	2023-01-02	01:43:01	01:53:21	618156	605867abaf0023b996742de2	524518784	1	main_slash	11	main_slash	75	stimuli_distractor_diamondtriangles.svg	stimuli_target_squarediamonds.svg	16	yes	53	1	348
6.6.1	mac	2023-01-02	01:43:01	01:53:21	618156	605867abaf0023b996742de2	524518784	1	main_slash	11	advance_on_keypress_SLASH	76	stimuli_distractor_diamondtriangles.svg	stimuli_target_squarediamonds.svg	16	yes	57	0	1158
6.6.1	mac	2023-01-02	01:43:01	01:53:24	621945	605867abaf0023b996742de2	524518784	1	main_slash	11	main_slash	77	stimuli_distractor_diamondtriangles.svg	stimuli_distractor_diamondtriangles.svg	39	no	0	1	2000
6.6.1	mac	2023-01-02	01:43:01	01:53:24	621945	605867abaf0023b996742de2	524518784	1	main_slash	11	advance_on_keypress_SLASH	78	stimuli_distractor_diamondtriangles.svg	stimuli_distractor_diamondtriangles.svg	39	no	57	0	538
6.6.1	mac	2023-01-02	01:43:01	01:53:28	625103	605867abaf0023b996742de2	524518784	1	main_slash	11	main_slash	79	stimuli_distractor_trianglediamonds.svg	stimuli_distractor_trianglediamonds.svg	34	no	0	1	2000
6.6.1	mac	2023-01-02	01:43:01	01:53:28	625103	605867abaf0023b996742de2	524518784	1	main_slash	11	advance_on_keypress_SLASH	80	stimuli_distractor_trianglediamonds.svg	stimuli_distractor_trianglediamonds.svg	34	no	57	0	421
6.6.1	mac	2023-01-02	01:43:01	01:53:31	628148	605867abaf0023b996742de2	524518784	1	main_slash	11	main_slash	81	stimuli_target_trianglesquares.svg	stimuli_distractor_diamondtriangles.svg	22	yes	0	0	2000
6.6.1	mac	2023-01-02	01:43:01	01:53:31	628148	605867abaf0023b996742de2	524518784	1	main_slash	11	advance_on_keypress_SLASH	82	stimuli_target_trianglesquares.svg	stimuli_distractor_diamondtriangles.svg	22	yes	57	0	437
6.6.1	mac	2023-01-02	01:43:01	01:53:32	629646	605867abaf0023b996742de2	524518784	1	main_slash	11	main_slash	83	stimuli_target_trianglesquares.svg	stimuli_distractor_trianglediamonds.svg	18	yes	53	1	428
6.6.1	mac	2023-01-02	01:43:01	01:53:32	629646	605867abaf0023b996742de2	524518784	1	main_slash	11	advance_on_keypress_SLASH	84	stimuli_target_trianglesquares.svg	stimuli_distractor_trianglediamonds.svg	18	yes	57	0	1054
6.6.1	mac	2023-01-02	01:43:01	01:53:34	631812	605867abaf0023b996742de2	524518784	1	main_slash	11	main_slash	85	stimuli_target_squaretriangles.svg	stimuli_distractor_trianglediamonds.svg	3	yes	53	1	492
6.6.1	mac	2023-01-02	01:43:01	01:53:34	631812	605867abaf0023b996742de2	524518784	1	main_slash	11	advance_on_keypress_SLASH	86	stimuli_target_squaretriangles.svg	stimuli_distractor_trianglediamonds.svg	3	yes	57	0	1006
6.6.1	mac	2023-01-02	01:43:01	01:53:38	635436	605867abaf0023b996742de2	524518784	1	main_slash	11	main_slash	87	stimuli_distractor_trianglediamonds.svg	stimuli_distractor_diamondtriangles.svg	35	no	0	1	2000
6.6.1	mac	2023-01-02	01:43:01	01:53:38	635436	605867abaf0023b996742de2	524518784	1	main_slash	11	advance_on_keypress_SLASH	88	stimuli_distractor_trianglediamonds.svg	stimuli_distractor_diamondtriangles.svg	35	no	57	0	363
6.6.1	mac	2023-01-02	01:43:01	01:53:40	637020	605867abaf0023b996742de2	524518784	1	main_slash	11	main_slash	89	stimuli_distractor_diamondtriangles.svg	stimuli_target_diamondsquares.svg	32	yes	53	1	577
6.6.1	mac	2023-01-02	01:43:01	01:53:40	637020	605867abaf0023b996742de2	524518784	1	main_slash	11	advance_on_keypress_SLASH	90	stimuli_distractor_diamondtriangles.svg	stimuli_target_diamondsquares.svg	32	yes	57	0	856
6.6.1	mac	2023-01-02	01:43:01	01:53:42	639007	605867abaf0023b996742de2	524518784	1	main_slash	11	main_slash	91	stimuli_distractor_trianglediamonds.svg	stimuli_target_trianglecircles.svg	25	yes	53	1	511
6.6.1	mac	2023-01-02	01:43:01	01:53:42	639007	605867abaf0023b996742de2	524518784	1	main_slash	11	advance_on_keypress_SLASH	92	stimuli_distractor_trianglediamonds.svg	stimuli_target_trianglecircles.svg	25	yes	57	0	1038
6.6.1	mac	2023-01-02	01:43:01	01:53:44	641244	605867abaf0023b996742de2	524518784	1	main_slash	11	main_slash	93	stimuli_target_circlediamonds.svg	stimuli_distractor_trianglediamonds.svg	2	yes	53	1	579
6.6.1	mac	2023-01-02	01:43:01	01:53:44	641244	605867abaf0023b996742de2	524518784	1	main_slash	11	advance_on_keypress_SLASH	94	stimuli_target_circlediamonds.svg	stimuli_distractor_trianglediamonds.svg	2	yes	57	0	599
6.6.1	mac	2023-01-02	01:43:01	01:53:45	642946	605867abaf0023b996742de2	524518784	1	main_slash	11	main_slash	95	stimuli_target_diamondcircles.svg	stimuli_distractor_diamondtriangles.svg	23	yes	53	1	477
6.6.1	mac	2023-01-02	01:43:01	01:53:45	642946	605867abaf0023b996742de2	524518784	1	main_slash	11	advance_on_keypress_SLASH	96	stimuli_target_diamondcircles.svg	stimuli_distractor_diamondtriangles.svg	23	yes	57	0	1279
6.6.1	mac	2023-01-02	01:43:01	01:53:48	645284	605867abaf0023b996742de2	524518784	1	main_slash	11	main_slash	97	stimuli_distractor_trianglediamonds.svg	stimuli_target_squaretriangles.svg	11	yes	53	1	429
6.6.1	mac	2023-01-02	01:43:01	01:53:48	645284	605867abaf0023b996742de2	524518784	1	main_slash	11	advance_on_keypress_SLASH	98	stimuli_distractor_trianglediamonds.svg	stimuli_target_squaretriangles.svg	11	yes	57	0	783
6.6.1	mac	2023-01-02	01:43:01	01:53:50	647056	605867abaf0023b996742de2	524518784	1	main_slash	11	main_slash	99	stimuli_distractor_diamondtriangles.svg	stimuli_target_trianglecircles.svg	29	yes	53	1	364
6.6.1	mac	2023-01-02	01:43:01	01:53:50	647056	605867abaf0023b996742de2	524518784	1	main_slash	11	advance_on_keypress_SLASH	100	stimuli_distractor_diamondtriangles.svg	stimuli_target_trianglecircles.svg	29	yes	57	0	906
6.6.1	mac	2023-01-02	01:43:01	01:53:52	649169	605867abaf0023b996742de2	524518784	1	main_slash	11	main_slash	101	stimuli_target_diamondsquares.svg	stimuli_distractor_diamondtriangles.svg	24	yes	53	1	574
6.6.1	mac	2023-01-02	01:43:01	01:53:52	649169	605867abaf0023b996742de2	524518784	1	main_slash	11	advance_on_keypress_SLASH	102	stimuli_target_diamondsquares.svg	stimuli_distractor_diamondtriangles.svg	24	yes	57	0	592
6.6.1	mac	2023-01-02	01:43:01	01:53:53	650748	605867abaf0023b996742de2	524518784	1	main_slash	11	main_slash	103	stimuli_target_trianglecircles.svg	stimuli_distractor_trianglediamonds.svg	17	yes	53	1	365
6.6.1	mac	2023-01-02	01:43:01	01:53:53	650748	605867abaf0023b996742de2	524518784	1	main_slash	11	advance_on_keypress_SLASH	104	stimuli_target_trianglecircles.svg	stimuli_distractor_trianglediamonds.svg	17	yes	57	0	769
6.6.1	mac	2023-01-02	01:43:01	01:53:57	654148	605867abaf0023b996742de2	524518784	1	main_slash	11	main_slash	105	stimuli_distractor_trianglediamonds.svg	stimuli_distractor_trianglediamonds.svg	33	no	0	1	2000
6.6.1	mac	2023-01-02	01:43:01	01:53:57	654148	605867abaf0023b996742de2	524518784	1	main_slash	11	advance_on_keypress_SLASH	106	stimuli_distractor_trianglediamonds.svg	stimuli_distractor_trianglediamonds.svg	33	no	57	0	374
6.6.1	mac	2023-01-02	01:43:01	01:53:58	655573	605867abaf0023b996742de2	524518784	1	main_slash	11	main_slash	107	stimuli_target_diamondcircles.svg	stimuli_distractor_trianglediamonds.svg	19	yes	53	1	435
6.6.1	mac	2023-01-02	01:43:01	01:53:58	655573	605867abaf0023b996742de2	524518784	1	main_slash	11	advance_on_keypress_SLASH	108	stimuli_target_diamondcircles.svg	stimuli_distractor_trianglediamonds.svg	19	yes	57	0	1056
6.6.1	mac	2023-01-02	01:43:01	01:54:00	657618	605867abaf0023b996742de2	524518784	1	main_slash	11	main_slash	109	stimuli_distractor_diamondtriangles.svg	stimuli_target_squarediamonds.svg	16	yes	53	1	357
6.6.1	mac	2023-01-02	01:43:01	01:54:00	657618	605867abaf0023b996742de2	524518784	1	main_slash	11	advance_on_keypress_SLASH	110	stimuli_distractor_diamondtriangles.svg	stimuli_target_squarediamonds.svg	16	yes	57	0	998
6.6.1	mac	2023-01-02	01:43:01	01:54:02	659634	605867abaf0023b996742de2	524518784	1	main_slash	11	main_slash	111	stimuli_distractor_diamondtriangles.svg	stimuli_target_trianglesquares.svg	30	yes	53	1	392
6.6.1	mac	2023-01-02	01:43:01	01:54:02	659634	605867abaf0023b996742de2	524518784	1	main_slash	11	advance_on_keypress_SLASH	112	stimuli_distractor_diamondtriangles.svg	stimuli_target_trianglesquares.svg	30	yes	57	0	1294
6.6.1	mac	2023-01-02	01:43:01	01:54:06	663545	605867abaf0023b996742de2	524518784	1	main_slash	11	main_slash	113	stimuli_distractor_diamondtriangles.svg	stimuli_distractor_trianglediamonds.svg	38	no	0	1	2000
6.6.1	mac	2023-01-02	01:43:01	01:54:06	663545	605867abaf0023b996742de2	524518784	1	main_slash	11	advance_on_keypress_SLASH	114	stimuli_distractor_diamondtriangles.svg	stimuli_distractor_trianglediamonds.svg	38	no	57	0	345
6.6.1	mac	2023-01-02	01:43:01	01:54:07	664891	605867abaf0023b996742de2	524518784	1	main_slash	11	main_slash	115	stimuli_target_circletriangles.svg	stimuli_distractor_trianglediamonds.svg	1	yes	53	1	373
6.6.1	mac	2023-01-02	01:43:01	01:54:07	664891	605867abaf0023b996742de2	524518784	1	main_slash	11	advance_on_keypress_SLASH	116	stimuli_target_circletriangles.svg	stimuli_distractor_trianglediamonds.svg	1	yes	57	0	1027
6.6.1	mac	2023-01-02	01:43:01	01:54:09	666809	605867abaf0023b996742de2	524518784	1	main_slash	11	main_slash	117	stimuli_target_squaretriangles.svg	stimuli_distractor_diamondtriangles.svg	7	yes	53	1	250
6.6.1	mac	2023-01-02	01:43:01	01:54:09	666809	605867abaf0023b996742de2	524518784	1	main_slash	11	advance_on_keypress_SLASH	118	stimuli_target_squaretriangles.svg	stimuli_distractor_diamondtriangles.svg	7	yes	57	0	1008
6.6.1	mac	2023-01-02	01:43:01	01:54:11	668835	605867abaf0023b996742de2	524518784	1	main_slash	11	main_slash	119	stimuli_target_circletriangles.svg	stimuli_distractor_diamondtriangles.svg	5	yes	53	1	401
6.6.1	mac	2023-01-02	01:43:01	01:54:11	668835	605867abaf0023b996742de2	524518784	1	main_slash	11	advance_on_keypress_SLASH	120	stimuli_target_circletriangles.svg	stimuli_distractor_diamondtriangles.svg	5	yes	57	0	997
6.6.1	mac	2023-01-02	01:43:01	01:54:15	672460	605867abaf0023b996742de2	524518784	1	main_slash	11	main_slash	121	stimuli_distractor_trianglediamonds.svg	stimuli_distractor_diamondtriangles.svg	36	no	0	1	2000
6.6.1	mac	2023-01-02	01:43:01	01:54:15	672460	605867abaf0023b996742de2	524518784	1	main_slash	11	advance_on_keypress_SLASH	122	stimuli_distractor_trianglediamonds.svg	stimuli_distractor_diamondtriangles.svg	36	no	57	0	380
6.6.1	mac	2023-01-02	01:43:01	01:54:16	673869	605867abaf0023b996742de2	524518784	1	main_slash	11	main_slash	123	stimuli_distractor_trianglediamonds.svg	stimuli_target_circletriangles.svg	9	yes	53	1	401
6.6.1	mac	2023-01-02	01:43:01	01:54:16	673869	605867abaf0023b996742de2	524518784	1	main_slash	11	advance_on_keypress_SLASH	124	stimuli_distractor_trianglediamonds.svg	stimuli_target_circletriangles.svg	9	yes	57	0	729
6.6.1	mac	2023-01-02	01:43:01	01:54:18	675657	605867abaf0023b996742de2	524518784	1	main_slash	11	main_slash	125	stimuli_distractor_trianglediamonds.svg	stimuli_target_diamondsquares.svg	28	yes	53	1	428
6.6.1	mac	2023-01-02	01:43:01	01:54:18	675657	605867abaf0023b996742de2	524518784	1	main_slash	11	advance_on_keypress_SLASH	126	stimuli_distractor_trianglediamonds.svg	stimuli_target_diamondsquares.svg	28	yes	57	0	1095
6.6.1	mac	2023-01-02	01:43:01	01:54:20	677690	605867abaf0023b996742de2	524518784	1	main_slash	11	main_slash	127	stimuli_distractor_trianglediamonds.svg	stimuli_target_trianglesquares.svg	26	yes	53	1	309
6.6.1	mac	2023-01-02	01:43:01	01:54:20	677690	605867abaf0023b996742de2	524518784	1	main_slash	11	advance_on_keypress_SLASH	128	stimuli_distractor_trianglediamonds.svg	stimuli_target_trianglesquares.svg	26	yes	57	0	747
6.6.1	mac	2023-01-02	01:43:01	01:54:22	679365	605867abaf0023b996742de2	524518784	1	main_slash	11	main_slash	129	stimuli_distractor_trianglediamonds.svg	stimuli_target_circlediamonds.svg	10	yes	53	1	286
6.6.1	mac	2023-01-02	01:43:01	01:54:22	679365	605867abaf0023b996742de2	524518784	1	main_slash	11	advance_on_keypress_SLASH	130	stimuli_distractor_trianglediamonds.svg	stimuli_target_circlediamonds.svg	10	yes	57	0	1011
6.6.1	mac	2023-01-02	01:43:01	01:54:24	681386	605867abaf0023b996742de2	524518784	1	main_slash	11	main_slash	131	stimuli_target_diamondsquares.svg	stimuli_distractor_trianglediamonds.svg	20	yes	53	1	384
6.6.1	mac	2023-01-02	01:43:01	01:54:24	681386	605867abaf0023b996742de2	524518784	1	main_slash	11	advance_on_keypress_SLASH	132	stimuli_target_diamondsquares.svg	stimuli_distractor_trianglediamonds.svg	20	yes	57	0	761
6.6.1	mac	2023-01-02	01:43:01	01:54:27	684770	605867abaf0023b996742de2	524518784	1	main_slash	11	main_slash	133	stimuli_distractor_diamondtriangles.svg	stimuli_distractor_diamondtriangles.svg	40	no	0	1	2000
6.6.1	mac	2023-01-02	01:43:01	01:54:27	684770	605867abaf0023b996742de2	524518784	1	main_slash	11	advance_on_keypress_SLASH	134	stimuli_distractor_diamondtriangles.svg	stimuli_distractor_diamondtriangles.svg	40	no	57	0	443
6.6.1	mac	2023-01-02	01:43:01	01:54:29	686185	605867abaf0023b996742de2	524518784	1	main_slash	11	main_slash	135	stimuli_distractor_diamondtriangles.svg	stimuli_target_circlediamonds.svg	14	yes	53	1	353
6.6.1	mac	2023-01-02	01:43:01	01:54:29	686185	605867abaf0023b996742de2	524518784	1	main_slash	11	advance_on_keypress_SLASH	136	stimuli_distractor_diamondtriangles.svg	stimuli_target_circlediamonds.svg	14	yes	57	0	720
6.6.1	mac	2023-01-02	01:43:01	01:54:30	687823	605867abaf0023b996742de2	524518784	1	main_slash	11	main_slash	137	stimuli_distractor_diamondtriangles.svg	stimuli_target_circletriangles.svg	13	yes	53	1	280
6.6.1	mac	2023-01-02	01:43:01	01:54:30	687823	605867abaf0023b996742de2	524518784	1	main_slash	11	advance_on_keypress_SLASH	138	stimuli_distractor_diamondtriangles.svg	stimuli_target_circletriangles.svg	13	yes	57	0	930
6.6.1	mac	2023-01-02	01:43:01	01:54:32	689645	605867abaf0023b996742de2	524518784	1	main_slash	11	main_slash	139	stimuli_distractor_diamondtriangles.svg	stimuli_distractor_diamondtriangles.svg	39	no	53	0	268
6.6.1	mac	2023-01-02	01:43:01	01:54:32	689645	605867abaf0023b996742de2	524518784	1	main_slash	11	advance_on_keypress_SLASH	140	stimuli_distractor_diamondtriangles.svg	stimuli_distractor_diamondtriangles.svg	39	no	57	0	1104
6.6.1	mac	2023-01-02	01:43:01	01:54:34	691785	605867abaf0023b996742de2	524518784	1	main_slash	11	main_slash	141	stimuli_distractor_diamondtriangles.svg	stimuli_target_squaretriangles.svg	15	yes	53	1	418
6.6.1	mac	2023-01-02	01:43:01	01:54:34	691785	605867abaf0023b996742de2	524518784	1	main_slash	11	advance_on_keypress_SLASH	142	stimuli_distractor_diamondtriangles.svg	stimuli_target_squaretriangles.svg	15	yes	57	0	598
6.6.1	mac	2023-01-02	01:43:01	01:54:38	695016	605867abaf0023b996742de2	524518784	1	main_slash	11	main_slash	143	stimuli_distractor_diamondtriangles.svg	stimuli_target_diamondcircles.svg	31	yes	0	0	2000
6.6.1	mac	2023-01-02	01:43:01	01:54:38	695016	605867abaf0023b996742de2	524518784	1	main_slash	11	advance_on_keypress_SLASH	144	stimuli_distractor_diamondtriangles.svg	stimuli_target_diamondcircles.svg	31	yes	57	0	360
6.6.1	mac	2023-01-02	01:43:01	01:54:39	696325	605867abaf0023b996742de2	524518784	1	main_slash	11	main_slash	145	stimuli_distractor_trianglediamonds.svg	stimuli_distractor_trianglediamonds.svg	34	no	53	0	307
6.6.1	mac	2023-01-02	01:43:01	01:54:39	696325	605867abaf0023b996742de2	524518784	1	main_slash	11	advance_on_keypress_SLASH	146	stimuli_distractor_trianglediamonds.svg	stimuli_distractor_trianglediamonds.svg	34	no	57	0	1372
6.6.1	mac	2023-01-02	01:43:01	01:54:41	698642	605867abaf0023b996742de2	524518784	1	main_slash	11	main_slash	147	stimuli_target_squarediamonds.svg	stimuli_distractor_diamondtriangles.svg	8	yes	53	1	296
6.6.1	mac	2023-01-02	01:43:01	01:54:41	698642	605867abaf0023b996742de2	524518784	1	main_slash	11	advance_on_keypress_SLASH	148	stimuli_target_squarediamonds.svg	stimuli_distractor_diamondtriangles.svg	8	yes	57	0	880
6.6.1	mac	2023-01-02	01:43:01	01:54:45	702150	605867abaf0023b996742de2	524518784	1	main_slash	11	main_slash	149	stimuli_distractor_diamondtriangles.svg	stimuli_distractor_trianglediamonds.svg	37	no	0	1	2000
6.6.1	mac	2023-01-02	01:43:01	01:54:45	702150	605867abaf0023b996742de2	524518784	1	main_slash	11	advance_on_keypress_SLASH	150	stimuli_distractor_diamondtriangles.svg	stimuli_distractor_trianglediamonds.svg	37	no	57	0	338
6.6.1	mac	2023-01-02	01:43:01	01:54:46	703505	605867abaf0023b996742de2	524518784	1	main_slash	11	main_slash	151	stimuli_target_circlediamonds.svg	stimuli_distractor_diamondtriangles.svg	6	yes	53	1	396
6.6.1	mac	2023-01-02	01:43:01	01:54:46	703505	605867abaf0023b996742de2	524518784	1	main_slash	11	advance_on_keypress_SLASH	152	stimuli_target_circlediamonds.svg	stimuli_distractor_diamondtriangles.svg	6	yes	57	0	693
6.6.1	mac	2023-01-02	01:43:01	01:54:48	705271	605867abaf0023b996742de2	524518784	1	main_slash	11	main_slash	153	stimuli_target_squarediamonds.svg	stimuli_distractor_trianglediamonds.svg	4	yes	53	1	453
6.6.1	mac	2023-01-02	01:43:01	01:54:48	705271	605867abaf0023b996742de2	524518784	1	main_slash	11	advance_on_keypress_SLASH	154	stimuli_target_squarediamonds.svg	stimuli_distractor_trianglediamonds.svg	4	yes	57	0	1359
6.6.1	mac	2023-01-02	01:43:01	01:54:50	707603	605867abaf0023b996742de2	524518784	1	main_slash	11	main_slash	155	stimuli_distractor_trianglediamonds.svg	stimuli_target_squarediamonds.svg	12	yes	53	1	338
6.6.1	mac	2023-01-02	01:43:01	01:54:50	707603	605867abaf0023b996742de2	524518784	1	main_slash	11	advance_on_keypress_SLASH	156	stimuli_distractor_trianglediamonds.svg	stimuli_target_squarediamonds.svg	12	yes	57	0	1248
6.6.1	mac	2023-01-02	01:43:01	01:54:54	711479	605867abaf0023b996742de2	524518784	1	main_slash	11	main_slash	157	stimuli_distractor_trianglediamonds.svg	stimuli_target_diamondcircles.svg	27	yes	0	0	2000
6.6.1	mac	2023-01-02	01:43:01	01:54:54	711479	605867abaf0023b996742de2	524518784	1	main_slash	11	advance_on_keypress_SLASH	158	stimuli_distractor_trianglediamonds.svg	stimuli_target_diamondcircles.svg	27	yes	57	0	421
6.6.1	mac	2023-01-02	01:43:01	01:54:56	713111	605867abaf0023b996742de2	524518784	1	main_slash	11	main_slash	159	stimuli_target_trianglecircles.svg	stimuli_distractor_diamondtriangles.svg	21	yes	53	1	586
6.6.1	mac	2023-01-02	01:43:01	01:54:56	713111	605867abaf0023b996742de2	524518784	1	main_slash	11	advance_on_keypress_SLASH	160	stimuli_target_trianglecircles.svg	stimuli_distractor_diamondtriangles.svg	21	yes	57	0	628