build	computer.platform	date	time	timestamp	time_elapsed_ms	subject	group	session	blockcode	blocknum	trialcode	trialnum	stimulus_left	stimulus_right	stim_index	target_present	response	correct	latency
6.6.1	mac	2022-12-25	20:19:53	20:22:21	145672	5e9f29c46a466e0a35c28dea	294382633	1	practice_slash	5	practice_slash	1	stimuli_distractor_trianglediamonds.svg	stimuli_target_circlediamonds.svg	10	yes	53	1	1830
6.6.1	mac	2022-12-25	20:19:53	20:22:21	145672	5e9f29c46a466e0a35c28dea	294382633	1	practice_slash	5	advance_on_keypress_SLASH	2	stimuli_distractor_trianglediamonds.svg	stimuli_target_circlediamonds.svg	10	yes	57	0	2888
6.6.1	mac	2022-12-25	20:19:53	20:22:27	151647	5e9f29c46a466e0a35c28dea	294382633	1	practice_slash	5	practice_slash	3	stimuli_target_squarediamonds.svg	stimuli_distractor_diamondtriangles.svg	2	yes	53	1	1431
6.6.1	mac	2022-12-25	20:19:53	20:22:27	151647	5e9f29c46a466e0a35c28dea	294382633	1	practice_slash	5	advance_on_keypress_SLASH	4	stimuli_target_squarediamonds.svg	stimuli_distractor_diamondtriangles.svg	2	yes	57	0	1129
6.6.1	mac	2022-12-25	20:19:53	20:22:31	156419	5e9f29c46a466e0a35c28dea	294382633	1	practice_slash	5	practice_slash	5	stimuli_target_diamondsquares.svg	stimuli_distractor_trianglediamonds.svg	6	yes	0	0	2000
6.6.1	mac	2022-12-25	20:19:53	20:22:31	156419	5e9f29c46a466e0a35c28dea	294382633	1	practice_slash	5	advance_on_keypress_SLASH	6	stimuli_target_diamondsquares.svg	stimuli_distractor_trianglediamonds.svg	6	yes	57	0	4115
6.6.1	mac	2022-12-25	20:19:53	20:22:39	164178	5e9f29c46a466e0a35c28dea	294382633	1	practice_slash	5	practice_slash	7	stimuli_distractor_trianglediamonds.svg	stimuli_distractor_trianglediamonds.svg	15	no	0	1	2000
6.6.1	mac	2022-12-25	20:19:53	20:22:39	164178	5e9f29c46a466e0a35c28dea	294382633	1	practice_slash	5	advance_on_keypress_SLASH	8	stimuli_distractor_trianglediamonds.svg	stimuli_distractor_trianglediamonds.svg	15	no	57	0	1309
6.6.1	mac	2022-12-25	20:19:53	20:22:43	168335	5e9f29c46a466e0a35c28dea	294382633	1	practice_slash	5	practice_slash	9	stimuli_target_squarediamonds.svg	stimuli_distractor_trianglediamonds.svg	5	yes	53	1	1197
6.6.1	mac	2022-12-25	20:19:53	20:22:43	168335	5e9f29c46a466e0a35c28dea	294382633	1	practice_slash	5	advance_on_keypress_SLASH	10	stimuli_target_squarediamonds.svg	stimuli_distractor_trianglediamonds.svg	5	yes	57	0	946
6.6.1	mac	2022-12-25	20:19:53	20:22:47	172118	5e9f29c46a466e0a35c28dea	294382633	1	practice_slash	5	practice_slash	11	stimuli_distractor_trianglediamonds.svg	stimuli_distractor_diamondtriangles.svg	16	no	53	0	1189
6.6.1	mac	2022-12-25	20:19:53	20:22:47	172118	5e9f29c46a466e0a35c28dea	294382633	1	practice_slash	5	advance_on_keypress_SLASH	12	stimuli_distractor_trianglediamonds.svg	stimuli_distractor_diamondtriangles.svg	16	no	57	0	555
6.6.1	mac	2022-12-25	20:19:53	20:22:50	175303	5e9f29c46a466e0a35c28dea	294382633	1	practice_slash	5	practice_slash	13	stimuli_distractor_trianglediamonds.svg	stimuli_target_squarediamonds.svg	11	yes	53	1	999
6.6.1	mac	2022-12-25	20:19:53	20:22:50	175303	5e9f29c46a466e0a35c28dea	294382633	1	practice_slash	5	advance_on_keypress_SLASH	14	stimuli_distractor_trianglediamonds.svg	stimuli_target_squarediamonds.svg	11	yes	57	0	787
6.6.1	mac	2022-12-25	20:19:53	20:22:55	179723	5e9f29c46a466e0a35c28dea	294382633	1	practice_slash	5	practice_slash	15	stimuli_distractor_diamondtriangles.svg	stimuli_distractor_trianglediamonds.svg	14	no	0	1	2000
6.6.1	mac	2022-12-25	20:19:53	20:22:55	179723	5e9f29c46a466e0a35c28dea	294382633	1	practice_slash	5	advance_on_keypress_SLASH	16	stimuli_distractor_diamondtriangles.svg	stimuli_distractor_trianglediamonds.svg	14	no	57	0	471
6.6.1	mac	2022-12-25	20:19:53	20:22:58	182909	5e9f29c46a466e0a35c28dea	294382633	1	practice_slash	5	practice_slash	17	stimuli_distractor_trianglediamonds.svg	stimuli_target_diamondcircles.svg	12	yes	53	1	1058
6.6.1	mac	2022-12-25	20:19:53	20:22:58	182909	5e9f29c46a466e0a35c28dea	294382633	1	practice_slash	5	advance_on_keypress_SLASH	18	stimuli_distractor_trianglediamonds.svg	stimuli_target_diamondcircles.svg	12	yes	57	0	775
6.6.1	mac	2022-12-25	20:19:53	20:23:02	187336	5e9f29c46a466e0a35c28dea	294382633	1	practice_slash	5	practice_slash	19	stimuli_distractor_diamondtriangles.svg	stimuli_distractor_diamondtriangles.svg	13	no	0	1	2000
6.6.1	mac	2022-12-25	20:19:53	20:23:02	187336	5e9f29c46a466e0a35c28dea	294382633	1	practice_slash	5	advance_on_keypress_SLASH	20	stimuli_distractor_diamondtriangles.svg	stimuli_distractor_diamondtriangles.svg	13	no	57	0	924
6.6.1	mac	2022-12-25	20:19:53	20:23:06	190752	5e9f29c46a466e0a35c28dea	294382633	1	practice_slash	5	practice_slash	21	stimuli_distractor_diamondtriangles.svg	stimuli_target_diamondcircles.svg	8	yes	53	1	841
6.6.1	mac	2022-12-25	20:19:53	20:23:06	190752	5e9f29c46a466e0a35c28dea	294382633	1	practice_slash	5	advance_on_keypress_SLASH	22	stimuli_distractor_diamondtriangles.svg	stimuli_target_diamondcircles.svg	8	yes	57	0	13226
6.6.1	mac	2022-12-25	20:19:53	20:23:21	206428	5e9f29c46a466e0a35c28dea	294382633	1	practice_slash	5	practice_slash	23	stimuli_distractor_diamondtriangles.svg	stimuli_target_circletriangles.svg	7	yes	53	1	803
6.6.1	mac	2022-12-25	20:19:53	20:23:21	206428	5e9f29c46a466e0a35c28dea	294382633	1	practice_slash	5	advance_on_keypress_SLASH	24	stimuli_distractor_diamondtriangles.svg	stimuli_target_circletriangles.svg	7	yes	57	0	1047
6.6.1	mac	2022-12-25	20:19:53	20:23:25	210093	5e9f29c46a466e0a35c28dea	294382633	1	practice_slash	5	practice_slash	25	stimuli_target_circlediamonds.svg	stimuli_distractor_diamondtriangles.svg	1	yes	53	1	981
6.6.1	mac	2022-12-25	20:19:53	20:23:25	210093	5e9f29c46a466e0a35c28dea	294382633	1	practice_slash	5	advance_on_keypress_SLASH	26	stimuli_target_circlediamonds.svg	stimuli_distractor_diamondtriangles.svg	1	yes	57	0	1370
6.6.1	mac	2022-12-25	20:19:53	20:23:29	214113	5e9f29c46a466e0a35c28dea	294382633	1	practice_slash	5	practice_slash	27	stimuli_target_diamondsquares.svg	stimuli_distractor_diamondtriangles.svg	3	yes	53	1	1011
6.6.1	mac	2022-12-25	20:19:53	20:23:29	214113	5e9f29c46a466e0a35c28dea	294382633	1	practice_slash	5	advance_on_keypress_SLASH	28	stimuli_target_diamondsquares.svg	stimuli_distractor_diamondtriangles.svg	3	yes	57	0	6414
6.6.1	mac	2022-12-25	20:19:53	20:23:38	222903	5e9f29c46a466e0a35c28dea	294382633	1	practice_slash	5	practice_slash	29	stimuli_distractor_diamondtriangles.svg	stimuli_target_trianglecircles.svg	9	yes	53	1	728
6.6.1	mac	2022-12-25	20:19:53	20:23:38	222903	5e9f29c46a466e0a35c28dea	294382633	1	practice_slash	5	advance_on_keypress_SLASH	30	stimuli_distractor_diamondtriangles.svg	stimuli_target_trianglecircles.svg	9	yes	57	0	822
6.6.1	mac	2022-12-25	20:19:53	20:23:41	226035	5e9f29c46a466e0a35c28dea	294382633	1	practice_slash	5	practice_slash	31	stimuli_target_circlediamonds.svg	stimuli_distractor_trianglediamonds.svg	4	yes	53	1	651
6.6.1	mac	2022-12-25	20:19:53	20:23:41	226035	5e9f29c46a466e0a35c28dea	294382633	1	practice_slash	5	advance_on_keypress_SLASH	32	stimuli_target_circlediamonds.svg	stimuli_distractor_trianglediamonds.svg	4	yes	57	0	917
6.6.1	mac	2022-12-25	20:19:53	20:23:53	238037	5e9f29c46a466e0a35c28dea	294382633	1	main_slash	7	main_slash	1	stimuli_distractor_diamondtriangles.svg	stimuli_distractor_diamondtriangles.svg	40	no	0	1	2000
6.6.1	mac	2022-12-25	20:19:53	20:23:53	238037	5e9f29c46a466e0a35c28dea	294382633	1	main_slash	7	advance_on_keypress_SLASH	2	stimuli_distractor_diamondtriangles.svg	stimuli_distractor_diamondtriangles.svg	40	no	57	0	774
6.6.1	mac	2022-12-25	20:19:53	20:23:55	240030	5e9f29c46a466e0a35c28dea	294382633	1	main_slash	7	main_slash	3	stimuli_distractor_diamondtriangles.svg	stimuli_target_circlediamonds.svg	14	yes	53	1	582
6.6.1	mac	2022-12-25	20:19:53	20:23:55	240030	5e9f29c46a466e0a35c28dea	294382633	1	main_slash	7	advance_on_keypress_SLASH	4	stimuli_distractor_diamondtriangles.svg	stimuli_target_circlediamonds.svg	14	yes	57	0	1404
6.6.1	mac	2022-12-25	20:19:53	20:23:58	243009	5e9f29c46a466e0a35c28dea	294382633	1	main_slash	7	main_slash	5	stimuli_distractor_diamondtriangles.svg	stimuli_target_trianglesquares.svg	30	yes	53	1	939
6.6.1	mac	2022-12-25	20:19:53	20:23:58	243009	5e9f29c46a466e0a35c28dea	294382633	1	main_slash	7	advance_on_keypress_SLASH	6	stimuli_distractor_diamondtriangles.svg	stimuli_target_trianglesquares.svg	30	yes	57	0	732
6.6.1	mac	2022-12-25	20:19:53	20:24:00	245069	5e9f29c46a466e0a35c28dea	294382633	1	main_slash	7	main_slash	7	stimuli_target_trianglesquares.svg	stimuli_distractor_diamondtriangles.svg	22	yes	53	1	694
6.6.1	mac	2022-12-25	20:19:53	20:24:00	245069	5e9f29c46a466e0a35c28dea	294382633	1	main_slash	7	advance_on_keypress_SLASH	8	stimuli_target_trianglesquares.svg	stimuli_distractor_diamondtriangles.svg	22	yes	57	0	618
6.6.1	mac	2022-12-25	20:19:53	20:24:02	247299	5e9f29c46a466e0a35c28dea	294382633	1	main_slash	7	main_slash	9	stimuli_distractor_trianglediamonds.svg	stimuli_target_diamondcircles.svg	27	yes	53	1	972
6.6.1	mac	2022-12-25	20:19:53	20:24:02	247299	5e9f29c46a466e0a35c28dea	294382633	1	main_slash	7	advance_on_keypress_SLASH	10	stimuli_distractor_trianglediamonds.svg	stimuli_target_diamondcircles.svg	27	yes	57	0	903
6.6.1	mac	2022-12-25	20:19:53	20:24:05	250070	5e9f29c46a466e0a35c28dea	294382633	1	main_slash	7	main_slash	11	stimuli_distractor_trianglediamonds.svg	stimuli_target_diamondsquares.svg	28	yes	53	1	1232
6.6.1	mac	2022-12-25	20:19:53	20:24:05	250070	5e9f29c46a466e0a35c28dea	294382633	1	main_slash	7	advance_on_keypress_SLASH	12	stimuli_distractor_trianglediamonds.svg	stimuli_target_diamondsquares.svg	28	yes	57	0	848
6.6.1	mac	2022-12-25	20:19:53	20:24:07	252399	5e9f29c46a466e0a35c28dea	294382633	1	main_slash	7	main_slash	13	stimuli_distractor_diamondtriangles.svg	stimuli_target_diamondsquares.svg	32	yes	53	1	841
6.6.1	mac	2022-12-25	20:19:53	20:24:07	252399	5e9f29c46a466e0a35c28dea	294382633	1	main_slash	7	advance_on_keypress_SLASH	14	stimuli_distractor_diamondtriangles.svg	stimuli_target_diamondsquares.svg	32	yes	57	0	555
6.6.1	mac	2022-12-25	20:19:53	20:24:09	254413	5e9f29c46a466e0a35c28dea	294382633	1	main_slash	7	main_slash	15	stimuli_target_diamondcircles.svg	stimuli_distractor_diamondtriangles.svg	23	yes	53	1	834
6.6.1	mac	2022-12-25	20:19:53	20:24:09	254413	5e9f29c46a466e0a35c28dea	294382633	1	main_slash	7	advance_on_keypress_SLASH	16	stimuli_target_diamondcircles.svg	stimuli_distractor_diamondtriangles.svg	23	yes	57	0	352
6.6.1	mac	2022-12-25	20:19:53	20:24:12	257397	5e9f29c46a466e0a35c28dea	294382633	1	main_slash	7	main_slash	17	stimuli_distractor_diamondtriangles.svg	stimuli_distractor_diamondtriangles.svg	39	no	0	1	2000
6.6.1	mac	2022-12-25	20:19:53	20:24:12	257397	5e9f29c46a466e0a35c28dea	294382633	1	main_slash	7	advance_on_keypress_SLASH	18	stimuli_distractor_diamondtriangles.svg	stimuli_distractor_diamondtriangles.svg	39	no	57	0	701
6.6.1	mac	2022-12-25	20:19:53	20:24:14	259406	5e9f29c46a466e0a35c28dea	294382633	1	main_slash	7	main_slash	19	stimuli_distractor_trianglediamonds.svg	stimuli_target_trianglecircles.svg	25	yes	53	1	667
6.6.1	mac	2022-12-25	20:19:53	20:24:14	259406	5e9f29c46a466e0a35c28dea	294382633	1	main_slash	7	advance_on_keypress_SLASH	20	stimuli_distractor_trianglediamonds.svg	stimuli_target_trianglecircles.svg	25	yes	57	0	463
6.6.1	mac	2022-12-25	20:19:53	20:24:16	261225	5e9f29c46a466e0a35c28dea	294382633	1	main_slash	7	main_slash	21	stimuli_target_circlediamonds.svg	stimuli_distractor_trianglediamonds.svg	2	yes	53	1	711
6.6.1	mac	2022-12-25	20:19:53	20:24:16	261225	5e9f29c46a466e0a35c28dea	294382633	1	main_slash	7	advance_on_keypress_SLASH	22	stimuli_target_circlediamonds.svg	stimuli_distractor_trianglediamonds.svg	2	yes	57	0	434
6.6.1	mac	2022-12-25	20:19:53	20:24:18	262970	5e9f29c46a466e0a35c28dea	294382633	1	main_slash	7	main_slash	23	stimuli_distractor_diamondtriangles.svg	stimuli_target_trianglecircles.svg	29	yes	53	1	668
6.6.1	mac	2022-12-25	20:19:53	20:24:18	262970	5e9f29c46a466e0a35c28dea	294382633	1	main_slash	7	advance_on_keypress_SLASH	24	stimuli_distractor_diamondtriangles.svg	stimuli_target_trianglecircles.svg	29	yes	57	0	356
6.6.1	mac	2022-12-25	20:19:53	20:24:20	264702	5e9f29c46a466e0a35c28dea	294382633	1	main_slash	7	main_slash	25	stimuli_target_trianglecircles.svg	stimuli_distractor_diamondtriangles.svg	21	yes	53	1	749
6.6.1	mac	2022-12-25	20:19:53	20:24:20	264702	5e9f29c46a466e0a35c28dea	294382633	1	main_slash	7	advance_on_keypress_SLASH	26	stimuli_target_trianglecircles.svg	stimuli_distractor_diamondtriangles.svg	21	yes	57	0	373
6.6.1	mac	2022-12-25	20:19:53	20:24:22	266577	5e9f29c46a466e0a35c28dea	294382633	1	main_slash	7	main_slash	27	stimuli_distractor_diamondtriangles.svg	stimuli_target_squarediamonds.svg	16	yes	53	1	852
6.6.1	mac	2022-12-25	20:19:53	20:24:22	266577	5e9f29c46a466e0a35c28dea	294382633	1	main_slash	7	advance_on_keypress_SLASH	28	stimuli_distractor_diamondtriangles.svg	stimuli_target_squarediamonds.svg	16	yes	57	0	308
6.6.1	mac	2022-12-25	20:19:53	20:24:23	268362	5e9f29c46a466e0a35c28dea	294382633	1	main_slash	7	main_slash	29	stimuli_distractor_diamondtriangles.svg	stimuli_target_diamondcircles.svg	31	yes	53	1	851
6.6.1	mac	2022-12-25	20:19:53	20:24:23	268362	5e9f29c46a466e0a35c28dea	294382633	1	main_slash	7	advance_on_keypress_SLASH	30	stimuli_distractor_diamondtriangles.svg	stimuli_target_diamondcircles.svg	31	yes	57	0	330
6.6.1	mac	2022-12-25	20:19:53	20:24:25	270052	5e9f29c46a466e0a35c28dea	294382633	1	main_slash	7	main_slash	31	stimuli_distractor_diamondtriangles.svg	stimuli_target_circletriangles.svg	13	yes	53	1	723
6.6.1	mac	2022-12-25	20:19:53	20:24:25	270052	5e9f29c46a466e0a35c28dea	294382633	1	main_slash	7	advance_on_keypress_SLASH	32	stimuli_distractor_diamondtriangles.svg	stimuli_target_circletriangles.svg	13	yes	57	0	335
6.6.1	mac	2022-12-25	20:19:53	20:24:28	273027	5e9f29c46a466e0a35c28dea	294382633	1	main_slash	7	main_slash	33	stimuli_distractor_trianglediamonds.svg	stimuli_distractor_diamondtriangles.svg	35	no	0	1	2000
6.6.1	mac	2022-12-25	20:19:53	20:24:28	273027	5e9f29c46a466e0a35c28dea	294382633	1	main_slash	7	advance_on_keypress_SLASH	34	stimuli_distractor_trianglediamonds.svg	stimuli_distractor_diamondtriangles.svg	35	no	57	0	2458
6.6.1	mac	2022-12-25	20:19:53	20:24:32	276683	5e9f29c46a466e0a35c28dea	294382633	1	main_slash	7	main_slash	35	stimuli_target_circletriangles.svg	stimuli_distractor_trianglediamonds.svg	1	yes	53	1	544
6.6.1	mac	2022-12-25	20:19:53	20:24:32	276683	5e9f29c46a466e0a35c28dea	294382633	1	main_slash	7	advance_on_keypress_SLASH	36	stimuli_target_circletriangles.svg	stimuli_distractor_trianglediamonds.svg	1	yes	57	0	285
6.6.1	mac	2022-12-25	20:19:53	20:24:33	278386	5e9f29c46a466e0a35c28dea	294382633	1	main_slash	7	main_slash	37	stimuli_target_diamondsquares.svg	stimuli_distractor_diamondtriangles.svg	24	yes	53	1	783
6.6.1	mac	2022-12-25	20:19:53	20:24:33	278386	5e9f29c46a466e0a35c28dea	294382633	1	main_slash	7	advance_on_keypress_SLASH	38	stimuli_target_diamondsquares.svg	stimuli_distractor_diamondtriangles.svg	24	yes	57	0	229
6.6.1	mac	2022-12-25	20:19:53	20:24:36	281254	5e9f29c46a466e0a35c28dea	294382633	1	main_slash	7	main_slash	39	stimuli_distractor_diamondtriangles.svg	stimuli_distractor_trianglediamonds.svg	37	no	0	1	2000
6.6.1	mac	2022-12-25	20:19:53	20:24:36	281254	5e9f29c46a466e0a35c28dea	294382633	1	main_slash	7	advance_on_keypress_SLASH	40	stimuli_distractor_diamondtriangles.svg	stimuli_distractor_trianglediamonds.svg	37	no	57	0	444
6.6.1	mac	2022-12-25	20:19:53	20:24:38	282977	5e9f29c46a466e0a35c28dea	294382633	1	main_slash	7	main_slash	41	stimuli_distractor_trianglediamonds.svg	stimuli_target_circlediamonds.svg	10	yes	53	1	631
6.6.1	mac	2022-12-25	20:19:53	20:24:38	282977	5e9f29c46a466e0a35c28dea	294382633	1	main_slash	7	advance_on_keypress_SLASH	42	stimuli_distractor_trianglediamonds.svg	stimuli_target_circlediamonds.svg	10	yes	57	0	322
6.6.1	mac	2022-12-25	20:19:53	20:24:41	285629	5e9f29c46a466e0a35c28dea	294382633	1	main_slash	7	main_slash	43	stimuli_target_squarediamonds.svg	stimuli_distractor_diamondtriangles.svg	8	yes	53	1	1677
6.6.1	mac	2022-12-25	20:19:53	20:24:41	285629	5e9f29c46a466e0a35c28dea	294382633	1	main_slash	7	advance_on_keypress_SLASH	44	stimuli_target_squarediamonds.svg	stimuli_distractor_diamondtriangles.svg	8	yes	57	0	752
6.6.1	mac	2022-12-25	20:19:53	20:24:43	287597	5e9f29c46a466e0a35c28dea	294382633	1	main_slash	7	main_slash	45	stimuli_target_circletriangles.svg	stimuli_distractor_diamondtriangles.svg	5	yes	53	1	574
6.6.1	mac	2022-12-25	20:19:53	20:24:43	287597	5e9f29c46a466e0a35c28dea	294382633	1	main_slash	7	advance_on_keypress_SLASH	46	stimuli_target_circletriangles.svg	stimuli_distractor_diamondtriangles.svg	5	yes	57	0	327
6.6.1	mac	2022-12-25	20:19:53	20:24:44	289513	5e9f29c46a466e0a35c28dea	294382633	1	main_slash	7	main_slash	47	stimuli_distractor_trianglediamonds.svg	stimuli_target_squaretriangles.svg	11	yes	53	1	936
6.6.1	mac	2022-12-25	20:19:53	20:24:44	289513	5e9f29c46a466e0a35c28dea	294382633	1	main_slash	7	advance_on_keypress_SLASH	48	stimuli_distractor_trianglediamonds.svg	stimuli_target_squaretriangles.svg	11	yes	57	0	307
6.6.1	mac	2022-12-25	20:19:53	20:24:46	291147	5e9f29c46a466e0a35c28dea	294382633	1	main_slash	7	main_slash	49	stimuli_target_trianglesquares.svg	stimuli_distractor_trianglediamonds.svg	18	yes	53	1	701
6.6.1	mac	2022-12-25	20:19:53	20:24:46	291147	5e9f29c46a466e0a35c28dea	294382633	1	main_slash	7	advance_on_keypress_SLASH	50	stimuli_target_trianglesquares.svg	stimuli_distractor_trianglediamonds.svg	18	yes	57	0	342
6.6.1	mac	2022-12-25	20:19:53	20:24:48	292892	5e9f29c46a466e0a35c28dea	294382633	1	main_slash	7	main_slash	51	stimuli_target_squarediamonds.svg	stimuli_distractor_trianglediamonds.svg	4	yes	53	1	774
6.6.1	mac	2022-12-25	20:19:53	20:24:48	292892	5e9f29c46a466e0a35c28dea	294382633	1	main_slash	7	advance_on_keypress_SLASH	52	stimuli_target_squarediamonds.svg	stimuli_distractor_trianglediamonds.svg	4	yes	57	0	344
6.6.1	mac	2022-12-25	20:19:53	20:24:49	294467	5e9f29c46a466e0a35c28dea	294382633	1	main_slash	7	main_slash	53	stimuli_target_squaretriangles.svg	stimuli_distractor_trianglediamonds.svg	3	yes	53	1	575
6.6.1	mac	2022-12-25	20:19:53	20:24:49	294467	5e9f29c46a466e0a35c28dea	294382633	1	main_slash	7	advance_on_keypress_SLASH	54	stimuli_target_squaretriangles.svg	stimuli_distractor_trianglediamonds.svg	3	yes	57	0	358
6.6.1	mac	2022-12-25	20:19:53	20:24:52	297454	5e9f29c46a466e0a35c28dea	294382633	1	main_slash	7	main_slash	55	stimuli_distractor_diamondtriangles.svg	stimuli_distractor_trianglediamonds.svg	38	no	0	1	2000
6.6.1	mac	2022-12-25	20:19:53	20:24:52	297454	5e9f29c46a466e0a35c28dea	294382633	1	main_slash	7	advance_on_keypress_SLASH	56	stimuli_distractor_diamondtriangles.svg	stimuli_distractor_trianglediamonds.svg	38	no	57	0	873
6.6.1	mac	2022-12-25	20:19:53	20:24:56	300957	5e9f29c46a466e0a35c28dea	294382633	1	main_slash	7	main_slash	57	stimuli_distractor_trianglediamonds.svg	stimuli_distractor_trianglediamonds.svg	33	no	0	1	2000
6.6.1	mac	2022-12-25	20:19:53	20:24:56	300957	5e9f29c46a466e0a35c28dea	294382633	1	main_slash	7	advance_on_keypress_SLASH	58	stimuli_distractor_trianglediamonds.svg	stimuli_distractor_trianglediamonds.svg	33	no	57	0	1991
6.6.1	mac	2022-12-25	20:19:53	20:24:59	304474	5e9f29c46a466e0a35c28dea	294382633	1	main_slash	7	main_slash	59	stimuli_distractor_trianglediamonds.svg	stimuli_target_trianglesquares.svg	26	yes	53	1	893
6.6.1	mac	2022-12-25	20:19:53	20:24:59	304474	5e9f29c46a466e0a35c28dea	294382633	1	main_slash	7	advance_on_keypress_SLASH	60	stimuli_distractor_trianglediamonds.svg	stimuli_target_trianglesquares.svg	26	yes	57	0	293
6.6.1	mac	2022-12-25	20:19:53	20:25:02	307413	5e9f29c46a466e0a35c28dea	294382633	1	main_slash	7	main_slash	61	stimuli_distractor_trianglediamonds.svg	stimuli_distractor_diamondtriangles.svg	36	no	0	1	2000
6.6.1	mac	2022-12-25	20:19:53	20:25:02	307413	5e9f29c46a466e0a35c28dea	294382633	1	main_slash	7	advance_on_keypress_SLASH	62	stimuli_distractor_trianglediamonds.svg	stimuli_distractor_diamondtriangles.svg	36	no	57	0	604
6.6.1	mac	2022-12-25	20:19:53	20:25:04	309103	5e9f29c46a466e0a35c28dea	294382633	1	main_slash	7	main_slash	63	stimuli_target_squaretriangles.svg	stimuli_distractor_diamondtriangles.svg	7	yes	53	1	449
6.6.1	mac	2022-12-25	20:19:53	20:25:04	309103	5e9f29c46a466e0a35c28dea	294382633	1	main_slash	7	advance_on_keypress_SLASH	64	stimuli_target_squaretriangles.svg	stimuli_distractor_diamondtriangles.svg	7	yes	57	0	381
6.6.1	mac	2022-12-25	20:19:53	20:25:06	310854	5e9f29c46a466e0a35c28dea	294382633	1	main_slash	7	main_slash	65	stimuli_distractor_diamondtriangles.svg	stimuli_target_squaretriangles.svg	15	yes	53	1	729
6.6.1	mac	2022-12-25	20:19:53	20:25:06	310854	5e9f29c46a466e0a35c28dea	294382633	1	main_slash	7	advance_on_keypress_SLASH	66	stimuli_distractor_diamondtriangles.svg	stimuli_target_squaretriangles.svg	15	yes	57	0	288
6.6.1	mac	2022-12-25	20:19:53	20:25:08	312582	5e9f29c46a466e0a35c28dea	294382633	1	main_slash	7	main_slash	67	stimuli_target_diamondcircles.svg	stimuli_distractor_trianglediamonds.svg	19	yes	53	1	804
6.6.1	mac	2022-12-25	20:19:53	20:25:08	312582	5e9f29c46a466e0a35c28dea	294382633	1	main_slash	7	advance_on_keypress_SLASH	68	stimuli_target_diamondcircles.svg	stimuli_distractor_trianglediamonds.svg	19	yes	57	0	279
6.6.1	mac	2022-12-25	20:19:53	20:25:09	314291	5e9f29c46a466e0a35c28dea	294382633	1	main_slash	7	main_slash	69	stimuli_distractor_trianglediamonds.svg	stimuli_target_circletriangles.svg	9	yes	53	1	793
6.6.1	mac	2022-12-25	20:19:53	20:25:09	314291	5e9f29c46a466e0a35c28dea	294382633	1	main_slash	7	advance_on_keypress_SLASH	70	stimuli_distractor_trianglediamonds.svg	stimuli_target_circletriangles.svg	9	yes	57	0	252
6.6.1	mac	2022-12-25	20:19:53	20:25:12	316681	5e9f29c46a466e0a35c28dea	294382633	1	main_slash	7	main_slash	71	stimuli_distractor_trianglediamonds.svg	stimuli_target_squarediamonds.svg	12	yes	53	1	1499
6.6.1	mac	2022-12-25	20:19:53	20:25:12	316681	5e9f29c46a466e0a35c28dea	294382633	1	main_slash	7	advance_on_keypress_SLASH	72	stimuli_distractor_trianglediamonds.svg	stimuli_target_squarediamonds.svg	12	yes	57	0	275
6.6.1	mac	2022-12-25	20:19:53	20:25:15	319583	5e9f29c46a466e0a35c28dea	294382633	1	main_slash	7	main_slash	73	stimuli_distractor_trianglediamonds.svg	stimuli_distractor_trianglediamonds.svg	34	no	0	1	2000
6.6.1	mac	2022-12-25	20:19:53	20:25:15	319583	5e9f29c46a466e0a35c28dea	294382633	1	main_slash	7	advance_on_keypress_SLASH	74	stimuli_distractor_trianglediamonds.svg	stimuli_distractor_trianglediamonds.svg	34	no	57	0	1259
6.6.1	mac	2022-12-25	20:19:53	20:25:17	322375	5e9f29c46a466e0a35c28dea	294382633	1	main_slash	7	main_slash	75	stimuli_target_diamondsquares.svg	stimuli_distractor_trianglediamonds.svg	20	yes	53	1	903
6.6.1	mac	2022-12-25	20:19:53	20:25:17	322375	5e9f29c46a466e0a35c28dea	294382633	1	main_slash	7	advance_on_keypress_SLASH	76	stimuli_target_diamondsquares.svg	stimuli_distractor_trianglediamonds.svg	20	yes	57	0	281
6.6.1	mac	2022-12-25	20:19:53	20:25:19	324037	5e9f29c46a466e0a35c28dea	294382633	1	main_slash	7	main_slash	77	stimuli_target_circlediamonds.svg	stimuli_distractor_diamondtriangles.svg	6	yes	53	1	739
6.6.1	mac	2022-12-25	20:19:53	20:25:19	324037	5e9f29c46a466e0a35c28dea	294382633	1	main_slash	7	advance_on_keypress_SLASH	78	stimuli_target_circlediamonds.svg	stimuli_distractor_diamondtriangles.svg	6	yes	57	0	330
6.6.1	mac	2022-12-25	20:19:53	20:25:21	325818	5e9f29c46a466e0a35c28dea	294382633	1	main_slash	7	main_slash	79	stimuli_target_trianglecircles.svg	stimuli_distractor_trianglediamonds.svg	17	yes	53	1	808
6.6.1	mac	2022-12-25	20:19:53	20:25:21	325818	5e9f29c46a466e0a35c28dea	294382633	1	main_slash	7	advance_on_keypress_SLASH	80	stimuli_target_trianglecircles.svg	stimuli_distractor_trianglediamonds.svg	17	yes	57	0	317
6.6.1	mac	2022-12-25	20:19:53	20:25:22	327489	5e9f29c46a466e0a35c28dea	294382633	1	main_slash	7	main_slash	81	stimuli_target_trianglecircles.svg	stimuli_distractor_trianglediamonds.svg	17	yes	53	1	610
6.6.1	mac	2022-12-25	20:19:53	20:25:22	327489	5e9f29c46a466e0a35c28dea	294382633	1	main_slash	7	advance_on_keypress_SLASH	82	stimuli_target_trianglecircles.svg	stimuli_distractor_trianglediamonds.svg	17	yes	57	0	273
6.6.1	mac	2022-12-25	20:19:53	20:25:24	329009	5e9f29c46a466e0a35c28dea	294382633	1	main_slash	7	main_slash	83	stimuli_target_diamondcircles.svg	stimuli_distractor_trianglediamonds.svg	19	yes	53	1	608
6.6.1	mac	2022-12-25	20:19:53	20:25:24	329009	5e9f29c46a466e0a35c28dea	294382633	1	main_slash	7	advance_on_keypress_SLASH	84	stimuli_target_diamondcircles.svg	stimuli_distractor_trianglediamonds.svg	19	yes	57	0	305
6.6.1	mac	2022-12-25	20:19:53	20:25:26	330680	5e9f29c46a466e0a35c28dea	294382633	1	main_slash	7	main_slash	85	stimuli_distractor_diamondtriangles.svg	stimuli_target_trianglecircles.svg	29	yes	53	1	724
6.6.1	mac	2022-12-25	20:19:53	20:25:26	330680	5e9f29c46a466e0a35c28dea	294382633	1	main_slash	7	advance_on_keypress_SLASH	86	stimuli_distractor_diamondtriangles.svg	stimuli_target_trianglecircles.svg	29	yes	57	0	275
6.6.1	mac	2022-12-25	20:19:53	20:25:28	332776	5e9f29c46a466e0a35c28dea	294382633	1	main_slash	7	main_slash	87	stimuli_distractor_trianglediamonds.svg	stimuli_target_squarediamonds.svg	12	yes	53	1	1170
6.6.1	mac	2022-12-25	20:19:53	20:25:28	332776	5e9f29c46a466e0a35c28dea	294382633	1	main_slash	7	advance_on_keypress_SLASH	88	stimuli_distractor_trianglediamonds.svg	stimuli_target_squarediamonds.svg	12	yes	57	0	754
6.6.1	mac	2022-12-25	20:19:53	20:25:30	335040	5e9f29c46a466e0a35c28dea	294382633	1	main_slash	7	main_slash	89	stimuli_distractor_trianglediamonds.svg	stimuli_target_circletriangles.svg	9	yes	53	1	881
6.6.1	mac	2022-12-25	20:19:53	20:25:30	335040	5e9f29c46a466e0a35c28dea	294382633	1	main_slash	7	advance_on_keypress_SLASH	90	stimuli_distractor_trianglediamonds.svg	stimuli_target_circletriangles.svg	9	yes	57	0	244
6.6.1	mac	2022-12-25	20:19:53	20:25:32	336680	5e9f29c46a466e0a35c28dea	294382633	1	main_slash	7	main_slash	91	stimuli_distractor_trianglediamonds.svg	stimuli_target_trianglesquares.svg	26	yes	53	1	752
6.6.1	mac	2022-12-25	20:19:53	20:25:32	336680	5e9f29c46a466e0a35c28dea	294382633	1	main_slash	7	advance_on_keypress_SLASH	92	stimuli_distractor_trianglediamonds.svg	stimuli_target_trianglesquares.svg	26	yes	57	0	293
6.6.1	mac	2022-12-25	20:19:53	20:25:33	338264	5e9f29c46a466e0a35c28dea	294382633	1	main_slash	7	main_slash	93	stimuli_target_squaretriangles.svg	stimuli_distractor_diamondtriangles.svg	7	yes	53	1	649
6.6.1	mac	2022-12-25	20:19:53	20:25:33	338264	5e9f29c46a466e0a35c28dea	294382633	1	main_slash	7	advance_on_keypress_SLASH	94	stimuli_target_squaretriangles.svg	stimuli_distractor_diamondtriangles.svg	7	yes	57	0	325
6.6.1	mac	2022-12-25	20:19:53	20:25:35	339920	5e9f29c46a466e0a35c28dea	294382633	1	main_slash	7	main_slash	95	stimuli_distractor_diamondtriangles.svg	stimuli_target_circlediamonds.svg	14	yes	53	1	702
6.6.1	mac	2022-12-25	20:19:53	20:25:35	339920	5e9f29c46a466e0a35c28dea	294382633	1	main_slash	7	advance_on_keypress_SLASH	96	stimuli_distractor_diamondtriangles.svg	stimuli_target_circlediamonds.svg	14	yes	57	0	323
6.6.1	mac	2022-12-25	20:19:53	20:25:38	342868	5e9f29c46a466e0a35c28dea	294382633	1	main_slash	7	main_slash	97	stimuli_distractor_trianglediamonds.svg	stimuli_distractor_trianglediamonds.svg	33	no	0	1	2000
6.6.1	mac	2022-12-25	20:19:53	20:25:38	342868	5e9f29c46a466e0a35c28dea	294382633	1	main_slash	7	advance_on_keypress_SLASH	98	stimuli_distractor_trianglediamonds.svg	stimuli_distractor_trianglediamonds.svg	33	no	57	0	375
6.6.1	mac	2022-12-25	20:19:53	20:25:41	345872	5e9f29c46a466e0a35c28dea	294382633	1	main_slash	7	main_slash	99	stimuli_distractor_diamondtriangles.svg	stimuli_distractor_diamondtriangles.svg	39	no	0	1	2000
6.6.1	mac	2022-12-25	20:19:53	20:25:41	345872	5e9f29c46a466e0a35c28dea	294382633	1	main_slash	7	advance_on_keypress_SLASH	100	stimuli_distractor_diamondtriangles.svg	stimuli_distractor_diamondtriangles.svg	39	no	57	0	306
6.6.1	mac	2022-12-25	20:19:53	20:25:43	347678	5e9f29c46a466e0a35c28dea	294382633	1	main_slash	7	main_slash	101	stimuli_target_circlediamonds.svg	stimuli_distractor_diamondtriangles.svg	6	yes	53	1	867
6.6.1	mac	2022-12-25	20:19:53	20:25:43	347678	5e9f29c46a466e0a35c28dea	294382633	1	main_slash	7	advance_on_keypress_SLASH	102	stimuli_target_circlediamonds.svg	stimuli_distractor_diamondtriangles.svg	6	yes	57	0	250
6.6.1	mac	2022-12-25	20:19:53	20:25:46	350562	5e9f29c46a466e0a35c28dea	294382633	1	main_slash	7	main_slash	103	stimuli_distractor_trianglediamonds.svg	stimuli_distractor_diamondtriangles.svg	35	no	0	1	2000
6.6.1	mac	2022-12-25	20:19:53	20:25:46	350562	5e9f29c46a466e0a35c28dea	294382633	1	main_slash	7	advance_on_keypress_SLASH	104	stimuli_distractor_trianglediamonds.svg	stimuli_distractor_diamondtriangles.svg	35	no	57	0	354
6.6.1	mac	2022-12-25	20:19:53	20:25:47	352159	5e9f29c46a466e0a35c28dea	294382633	1	main_slash	7	main_slash	105	stimuli_distractor_diamondtriangles.svg	stimuli_target_trianglesquares.svg	30	yes	53	1	606
6.6.1	mac	2022-12-25	20:19:53	20:25:47	352159	5e9f29c46a466e0a35c28dea	294382633	1	main_slash	7	advance_on_keypress_SLASH	106	stimuli_distractor_diamondtriangles.svg	stimuli_target_trianglesquares.svg	30	yes	57	0	272
6.6.1	mac	2022-12-25	20:19:53	20:25:50	354706	5e9f29c46a466e0a35c28dea	294382633	1	main_slash	7	main_slash	107	stimuli_target_squarediamonds.svg	stimuli_distractor_trianglediamonds.svg	4	yes	53	1	1650
6.6.1	mac	2022-12-25	20:19:53	20:25:50	354706	5e9f29c46a466e0a35c28dea	294382633	1	main_slash	7	advance_on_keypress_SLASH	108	stimuli_target_squarediamonds.svg	stimuli_distractor_trianglediamonds.svg	4	yes	57	0	292
6.6.1	mac	2022-12-25	20:19:53	20:25:51	356375	5e9f29c46a466e0a35c28dea	294382633	1	main_slash	7	main_slash	109	stimuli_distractor_diamondtriangles.svg	stimuli_target_diamondcircles.svg	31	yes	53	1	748
6.6.1	mac	2022-12-25	20:19:53	20:25:51	356375	5e9f29c46a466e0a35c28dea	294382633	1	main_slash	7	advance_on_keypress_SLASH	110	stimuli_distractor_diamondtriangles.svg	stimuli_target_diamondcircles.svg	31	yes	57	0	302
6.6.1	mac	2022-12-25	20:19:53	20:25:54	359310	5e9f29c46a466e0a35c28dea	294382633	1	main_slash	7	main_slash	111	stimuli_distractor_diamondtriangles.svg	stimuli_target_circletriangles.svg	13	yes	0	0	2000
6.6.1	mac	2022-12-25	20:19:53	20:25:54	359310	5e9f29c46a466e0a35c28dea	294382633	1	main_slash	7	advance_on_keypress_SLASH	112	stimuli_distractor_diamondtriangles.svg	stimuli_target_circletriangles.svg	13	yes	57	0	7855
6.6.1	mac	2022-12-25	20:19:53	20:26:04	368653	5e9f29c46a466e0a35c28dea	294382633	1	main_slash	7	main_slash	113	stimuli_target_trianglesquares.svg	stimuli_distractor_diamondtriangles.svg	22	yes	53	1	843
6.6.1	mac	2022-12-25	20:19:53	20:26:04	368653	5e9f29c46a466e0a35c28dea	294382633	1	main_slash	7	advance_on_keypress_SLASH	114	stimuli_target_trianglesquares.svg	stimuli_distractor_diamondtriangles.svg	22	yes	57	0	407
6.6.1	mac	2022-12-25	20:19:53	20:26:07	371691	5e9f29c46a466e0a35c28dea	294382633	1	main_slash	7	main_slash	115	stimuli_distractor_trianglediamonds.svg	stimuli_distractor_trianglediamonds.svg	34	no	0	1	2000
6.6.1	mac	2022-12-25	20:19:53	20:26:07	371691	5e9f29c46a466e0a35c28dea	294382633	1	main_slash	7	advance_on_keypress_SLASH	116	stimuli_distractor_trianglediamonds.svg	stimuli_distractor_trianglediamonds.svg	34	no	57	0	214
6.6.1	mac	2022-12-25	20:19:53	20:26:08	373420	5e9f29c46a466e0a35c28dea	294382633	1	main_slash	7	main_slash	117	stimuli_target_trianglesquares.svg	stimuli_distractor_trianglediamonds.svg	18	yes	53	1	873
6.6.1	mac	2022-12-25	20:19:53	20:26:08	373420	5e9f29c46a466e0a35c28dea	294382633	1	main_slash	7	advance_on_keypress_SLASH	118	stimuli_target_trianglesquares.svg	stimuli_distractor_trianglediamonds.svg	18	yes	57	0	227
6.6.1	mac	2022-12-25	20:19:53	20:26:10	375044	5e9f29c46a466e0a35c28dea	294382633	1	main_slash	7	main_slash	119	stimuli_target_diamondcircles.svg	stimuli_distractor_diamondtriangles.svg	23	yes	53	1	757
6.6.1	mac	2022-12-25	20:19:53	20:26:10	375044	5e9f29c46a466e0a35c28dea	294382633	1	main_slash	7	advance_on_keypress_SLASH	120	stimuli_target_diamondcircles.svg	stimuli_distractor_diamondtriangles.svg	23	yes	57	0	254
6.6.1	mac	2022-12-25	20:19:53	20:26:12	376766	5e9f29c46a466e0a35c28dea	294382633	1	main_slash	7	main_slash	121	stimuli_distractor_diamondtriangles.svg	stimuli_target_squaretriangles.svg	15	yes	53	1	828
6.6.1	mac	2022-12-25	20:19:53	20:26:12	376766	5e9f29c46a466e0a35c28dea	294382633	1	main_slash	7	advance_on_keypress_SLASH	122	stimuli_distractor_diamondtriangles.svg	stimuli_target_squaretriangles.svg	15	yes	57	0	256
6.6.1	mac	2022-12-25	20:19:53	20:26:13	378306	5e9f29c46a466e0a35c28dea	294382633	1	main_slash	7	main_slash	123	stimuli_target_circlediamonds.svg	stimuli_distractor_trianglediamonds.svg	2	yes	53	1	647
6.6.1	mac	2022-12-25	20:19:53	20:26:13	378306	5e9f29c46a466e0a35c28dea	294382633	1	main_slash	7	advance_on_keypress_SLASH	124	stimuli_target_circlediamonds.svg	stimuli_distractor_trianglediamonds.svg	2	yes	57	0	222
6.6.1	mac	2022-12-25	20:19:53	20:26:16	381158	5e9f29c46a466e0a35c28dea	294382633	1	main_slash	7	main_slash	125	stimuli_distractor_diamondtriangles.svg	stimuli_distractor_trianglediamonds.svg	38	no	0	1	2000
6.6.1	mac	2022-12-25	20:19:53	20:26:16	381158	5e9f29c46a466e0a35c28dea	294382633	1	main_slash	7	advance_on_keypress_SLASH	126	stimuli_distractor_diamondtriangles.svg	stimuli_distractor_trianglediamonds.svg	38	no	57	0	765
6.6.1	mac	2022-12-25	20:19:53	20:26:18	383469	5e9f29c46a466e0a35c28dea	294382633	1	main_slash	7	main_slash	127	stimuli_distractor_trianglediamonds.svg	stimuli_target_diamondcircles.svg	27	yes	53	1	903
6.6.1	mac	2022-12-25	20:19:53	20:26:18	383469	5e9f29c46a466e0a35c28dea	294382633	1	main_slash	7	advance_on_keypress_SLASH	128	stimuli_distractor_trianglediamonds.svg	stimuli_target_diamondcircles.svg	27	yes	57	0	227
6.6.1	mac	2022-12-25	20:19:53	20:26:20	385127	5e9f29c46a466e0a35c28dea	294382633	1	main_slash	7	main_slash	129	stimuli_distractor_trianglediamonds.svg	stimuli_target_trianglecircles.svg	25	yes	53	1	791
6.6.1	mac	2022-12-25	20:19:53	20:26:20	385127	5e9f29c46a466e0a35c28dea	294382633	1	main_slash	7	advance_on_keypress_SLASH	130	stimuli_distractor_trianglediamonds.svg	stimuli_target_trianglecircles.svg	25	yes	57	0	242
6.6.1	mac	2022-12-25	20:19:53	20:26:22	386833	5e9f29c46a466e0a35c28dea	294382633	1	main_slash	7	main_slash	131	stimuli_target_trianglecircles.svg	stimuli_distractor_diamondtriangles.svg	21	yes	53	1	813
6.6.1	mac	2022-12-25	20:19:53	20:26:22	386833	5e9f29c46a466e0a35c28dea	294382633	1	main_slash	7	advance_on_keypress_SLASH	132	stimuli_target_trianglecircles.svg	stimuli_distractor_diamondtriangles.svg	21	yes	57	0	278
6.6.1	mac	2022-12-25	20:19:53	20:26:24	388596	5e9f29c46a466e0a35c28dea	294382633	1	main_slash	7	main_slash	133	stimuli_target_circletriangles.svg	stimuli_distractor_diamondtriangles.svg	5	yes	53	1	839
6.6.1	mac	2022-12-25	20:19:53	20:26:24	388596	5e9f29c46a466e0a35c28dea	294382633	1	main_slash	7	advance_on_keypress_SLASH	134	stimuli_target_circletriangles.svg	stimuli_distractor_diamondtriangles.svg	5	yes	57	0	243
6.6.1	mac	2022-12-25	20:19:53	20:26:26	390702	5e9f29c46a466e0a35c28dea	294382633	1	main_slash	7	main_slash	135	stimuli_target_squarediamonds.svg	stimuli_distractor_diamondtriangles.svg	8	yes	53	1	1227
6.6.1	mac	2022-12-25	20:19:53	20:26:26	390702	5e9f29c46a466e0a35c28dea	294382633	1	main_slash	7	advance_on_keypress_SLASH	136	stimuli_target_squarediamonds.svg	stimuli_distractor_diamondtriangles.svg	8	yes	57	0	327
6.6.1	mac	2022-12-25	20:19:53	20:26:28	392651	5e9f29c46a466e0a35c28dea	294382633	1	main_slash	7	main_slash	137	stimuli_distractor_trianglediamonds.svg	stimuli_target_diamondsquares.svg	28	yes	53	1	973
6.6.1	mac	2022-12-25	20:19:53	20:26:28	392651	5e9f29c46a466e0a35c28dea	294382633	1	main_slash	7	advance_on_keypress_SLASH	138	stimuli_distractor_trianglediamonds.svg	stimuli_target_diamondsquares.svg	28	yes	57	0	262
6.6.1	mac	2022-12-25	20:19:53	20:26:29	394477	5e9f29c46a466e0a35c28dea	294382633	1	main_slash	7	main_slash	139	stimuli_distractor_diamondtriangles.svg	stimuli_target_squarediamonds.svg	16	yes	53	1	928
6.6.1	mac	2022-12-25	20:19:53	20:26:29	394477	5e9f29c46a466e0a35c28dea	294382633	1	main_slash	7	advance_on_keypress_SLASH	140	stimuli_distractor_diamondtriangles.svg	stimuli_target_squarediamonds.svg	16	yes	57	0	228
6.6.1	mac	2022-12-25	20:19:53	20:26:31	396083	5e9f29c46a466e0a35c28dea	294382633	1	main_slash	7	main_slash	141	stimuli_target_circletriangles.svg	stimuli_distractor_trianglediamonds.svg	1	yes	53	1	730
6.6.1	mac	2022-12-25	20:19:53	20:26:31	396083	5e9f29c46a466e0a35c28dea	294382633	1	main_slash	7	advance_on_keypress_SLASH	142	stimuli_target_circletriangles.svg	stimuli_distractor_trianglediamonds.svg	1	yes	57	0	419
6.6.1	mac	2022-12-25	20:19:53	20:26:33	398525	5e9f29c46a466e0a35c28dea	294382633	1	main_slash	7	main_slash	143	stimuli_distractor_trianglediamonds.svg	stimuli_target_circlediamonds.svg	10	yes	53	1	1385
6.6.1	mac	2022-12-25	20:19:53	20:26:33	398525	5e9f29c46a466e0a35c28dea	294382633	1	main_slash	7	advance_on_keypress_SLASH	144	stimuli_distractor_trianglediamonds.svg	stimuli_target_circlediamonds.svg	10	yes	57	0	257
6.6.1	mac	2022-12-25	20:19:53	20:26:36	401404	5e9f29c46a466e0a35c28dea	294382633	1	main_slash	7	main_slash	145	stimuli_distractor_diamondtriangles.svg	stimuli_distractor_trianglediamonds.svg	37	no	0	1	2000
6.6.1	mac	2022-12-25	20:19:53	20:26:36	401404	5e9f29c46a466e0a35c28dea	294382633	1	main_slash	7	advance_on_keypress_SLASH	146	stimuli_distractor_diamondtriangles.svg	stimuli_distractor_trianglediamonds.svg	37	no	57	0	655
6.6.1	mac	2022-12-25	20:19:53	20:26:39	404289	5e9f29c46a466e0a35c28dea	294382633	1	main_slash	7	main_slash	147	stimuli_target_squaretriangles.svg	stimuli_distractor_trianglediamonds.svg	3	yes	53	1	1591
6.6.1	mac	2022-12-25	20:19:53	20:26:39	404289	5e9f29c46a466e0a35c28dea	294382633	1	main_slash	7	advance_on_keypress_SLASH	148	stimuli_target_squaretriangles.svg	stimuli_distractor_trianglediamonds.svg	3	yes	57	0	208
6.6.1	mac	2022-12-25	20:19:53	20:26:41	406119	5e9f29c46a466e0a35c28dea	294382633	1	main_slash	7	main_slash	149	stimuli_distractor_trianglediamonds.svg	stimuli_target_squaretriangles.svg	11	yes	53	1	967
6.6.1	mac	2022-12-25	20:19:53	20:26:41	406119	5e9f29c46a466e0a35c28dea	294382633	1	main_slash	7	advance_on_keypress_SLASH	150	stimuli_distractor_trianglediamonds.svg	stimuli_target_squaretriangles.svg	11	yes	57	0	218
6.6.1	mac	2022-12-25	20:19:53	20:26:44	408967	5e9f29c46a466e0a35c28dea	294382633	1	main_slash	7	main_slash	151	stimuli_distractor_trianglediamonds.svg	stimuli_distractor_diamondtriangles.svg	36	no	0	1	2000
6.6.1	mac	2022-12-25	20:19:53	20:26:44	408967	5e9f29c46a466e0a35c28dea	294382633	1	main_slash	7	advance_on_keypress_SLASH	152	stimuli_distractor_trianglediamonds.svg	stimuli_distractor_diamondtriangles.svg	36	no	57	0	681
6.6.1	mac	2022-12-25	20:19:53	20:26:46	411215	5e9f29c46a466e0a35c28dea	294382633	1	main_slash	7	main_slash	153	stimuli_distractor_diamondtriangles.svg	stimuli_target_diamondsquares.svg	32	yes	53	1	925
6.6.1	mac	2022-12-25	20:19:53	20:26:46	411215	5e9f29c46a466e0a35c28dea	294382633	1	main_slash	7	advance_on_keypress_SLASH	154	stimuli_distractor_diamondtriangles.svg	stimuli_target_diamondsquares.svg	32	yes	57	0	238
6.6.1	mac	2022-12-25	20:19:53	20:26:49	414099	5e9f29c46a466e0a35c28dea	294382633	1	main_slash	7	main_slash	155	stimuli_distractor_diamondtriangles.svg	stimuli_distractor_diamondtriangles.svg	40	no	0	1	2000
6.6.1	mac	2022-12-25	20:19:53	20:26:49	414099	5e9f29c46a466e0a35c28dea	294382633	1	main_slash	7	advance_on_keypress_SLASH	156	stimuli_distractor_diamondtriangles.svg	stimuli_distractor_diamondtriangles.svg	40	no	57	0	497
6.6.1	mac	2022-12-25	20:19:53	20:26:51	416128	5e9f29c46a466e0a35c28dea	294382633	1	main_slash	7	main_slash	157	stimuli_target_diamondsquares.svg	stimuli_distractor_trianglediamonds.svg	20	yes	53	1	883
6.6.1	mac	2022-12-25	20:19:53	20:26:51	416128	5e9f29c46a466e0a35c28dea	294382633	1	main_slash	7	advance_on_keypress_SLASH	158	stimuli_target_diamondsquares.svg	stimuli_distractor_trianglediamonds.svg	20	yes	57	0	228
6.6.1	mac	2022-12-25	20:19:53	20:26:53	417881	5e9f29c46a466e0a35c28dea	294382633	1	main_slash	7	main_slash	159	stimuli_target_diamondsquares.svg	stimuli_distractor_diamondtriangles.svg	24	yes	53	1	899
6.6.1	mac	2022-12-25	20:19:53	20:26:53	417881	5e9f29c46a466e0a35c28dea	294382633	1	main_slash	7	advance_on_keypress_SLASH	160	stimuli_target_diamondsquares.svg	stimuli_distractor_diamondtriangles.svg	24	yes	57	0	214
6.6.1	mac	2022-12-25	20:19:53	20:27:16	441354	5e9f29c46a466e0a35c28dea	294382633	1	practice_z	9	practice_z	1	stimuli_target_squarediamonds.svg	stimuli_distractor_trianglediamonds.svg	5	yes	44	1	986
6.6.1	mac	2022-12-25	20:19:53	20:27:16	441354	5e9f29c46a466e0a35c28dea	294382633	1	practice_z	9	advance_on_keypress_ZEE	2	stimuli_target_squarediamonds.svg	stimuli_distractor_trianglediamonds.svg	5	yes	57	0	622
6.6.1	mac	2022-12-25	20:19:53	20:27:19	444311	5e9f29c46a466e0a35c28dea	294382633	1	practice_z	9	practice_z	3	stimuli_target_circlediamonds.svg	stimuli_distractor_diamondtriangles.svg	1	yes	44	1	700
6.6.1	mac	2022-12-25	20:19:53	20:27:19	444311	5e9f29c46a466e0a35c28dea	294382633	1	practice_z	9	advance_on_keypress_ZEE	4	stimuli_target_circlediamonds.svg	stimuli_distractor_diamondtriangles.svg	1	yes	57	0	559
6.6.1	mac	2022-12-25	20:19:53	20:27:22	447488	5e9f29c46a466e0a35c28dea	294382633	1	practice_z	9	practice_z	5	stimuli_target_circlediamonds.svg	stimuli_distractor_trianglediamonds.svg	4	yes	44	1	989
6.6.1	mac	2022-12-25	20:19:53	20:27:22	447488	5e9f29c46a466e0a35c28dea	294382633	1	practice_z	9	advance_on_keypress_ZEE	6	stimuli_target_circlediamonds.svg	stimuli_distractor_trianglediamonds.svg	4	yes	57	0	473
6.6.1	mac	2022-12-25	20:19:53	20:27:26	450557	5e9f29c46a466e0a35c28dea	294382633	1	practice_z	9	practice_z	7	stimuli_target_diamondsquares.svg	stimuli_distractor_trianglediamonds.svg	6	yes	44	1	968
6.6.1	mac	2022-12-25	20:19:53	20:27:26	450557	5e9f29c46a466e0a35c28dea	294382633	1	practice_z	9	advance_on_keypress_ZEE	8	stimuli_target_diamondsquares.svg	stimuli_distractor_trianglediamonds.svg	6	yes	57	0	311
6.6.1	mac	2022-12-25	20:19:53	20:27:29	453660	5e9f29c46a466e0a35c28dea	294382633	1	practice_z	9	practice_z	9	stimuli_distractor_diamondtriangles.svg	stimuli_target_circletriangles.svg	7	yes	44	1	1146
6.6.1	mac	2022-12-25	20:19:53	20:27:29	453660	5e9f29c46a466e0a35c28dea	294382633	1	practice_z	9	advance_on_keypress_ZEE	10	stimuli_distractor_diamondtriangles.svg	stimuli_target_circletriangles.svg	7	yes	57	0	247
6.6.1	mac	2022-12-25	20:19:53	20:27:31	456472	5e9f29c46a466e0a35c28dea	294382633	1	practice_z	9	practice_z	11	stimuli_distractor_diamondtriangles.svg	stimuli_target_diamondcircles.svg	8	yes	44	1	920
6.6.1	mac	2022-12-25	20:19:53	20:27:31	456472	5e9f29c46a466e0a35c28dea	294382633	1	practice_z	9	advance_on_keypress_ZEE	12	stimuli_distractor_diamondtriangles.svg	stimuli_target_diamondcircles.svg	8	yes	57	0	574
6.6.1	mac	2022-12-25	20:19:53	20:27:36	460673	5e9f29c46a466e0a35c28dea	294382633	1	practice_z	9	practice_z	13	stimuli_distractor_diamondtriangles.svg	stimuli_distractor_diamondtriangles.svg	13	no	0	1	2000
6.6.1	mac	2022-12-25	20:19:53	20:27:36	460673	5e9f29c46a466e0a35c28dea	294382633	1	practice_z	9	advance_on_keypress_ZEE	14	stimuli_distractor_diamondtriangles.svg	stimuli_distractor_diamondtriangles.svg	13	no	57	0	553
6.6.1	mac	2022-12-25	20:19:53	20:27:40	464863	5e9f29c46a466e0a35c28dea	294382633	1	practice_z	9	practice_z	15	stimuli_distractor_trianglediamonds.svg	stimuli_distractor_trianglediamonds.svg	15	no	0	1	2000
6.6.1	mac	2022-12-25	20:19:53	20:27:40	464863	5e9f29c46a466e0a35c28dea	294382633	1	practice_z	9	advance_on_keypress_ZEE	16	stimuli_distractor_trianglediamonds.svg	stimuli_distractor_trianglediamonds.svg	15	no	57	0	564
6.6.1	mac	2022-12-25	20:19:53	20:27:43	467944	5e9f29c46a466e0a35c28dea	294382633	1	practice_z	9	practice_z	17	stimuli_target_diamondsquares.svg	stimuli_distractor_diamondtriangles.svg	3	yes	44	1	872
6.6.1	mac	2022-12-25	20:19:53	20:27:43	467944	5e9f29c46a466e0a35c28dea	294382633	1	practice_z	9	advance_on_keypress_ZEE	18	stimuli_target_diamondsquares.svg	stimuli_distractor_diamondtriangles.svg	3	yes	57	0	337
6.6.1	mac	2022-12-25	20:19:53	20:27:47	471909	5e9f29c46a466e0a35c28dea	294382633	1	practice_z	9	practice_z	19	stimuli_distractor_trianglediamonds.svg	stimuli_distractor_diamondtriangles.svg	16	no	0	1	2000
6.6.1	mac	2022-12-25	20:19:53	20:27:47	471909	5e9f29c46a466e0a35c28dea	294382633	1	practice_z	9	advance_on_keypress_ZEE	20	stimuli_distractor_trianglediamonds.svg	stimuli_distractor_diamondtriangles.svg	16	no	57	0	445
6.6.1	mac	2022-12-25	20:19:53	20:27:50	474852	5e9f29c46a466e0a35c28dea	294382633	1	practice_z	9	practice_z	21	stimuli_distractor_trianglediamonds.svg	stimuli_target_circlediamonds.svg	10	yes	44	1	850
6.6.1	mac	2022-12-25	20:19:53	20:27:50	474852	5e9f29c46a466e0a35c28dea	294382633	1	practice_z	9	advance_on_keypress_ZEE	22	stimuli_distractor_trianglediamonds.svg	stimuli_target_circlediamonds.svg	10	yes	57	0	272
6.6.1	mac	2022-12-25	20:19:53	20:27:53	477617	5e9f29c46a466e0a35c28dea	294382633	1	practice_z	9	practice_z	23	stimuli_distractor_trianglediamonds.svg	stimuli_target_diamondcircles.svg	12	yes	44	1	857
6.6.1	mac	2022-12-25	20:19:53	20:27:53	477617	5e9f29c46a466e0a35c28dea	294382633	1	practice_z	9	advance_on_keypress_ZEE	24	stimuli_distractor_trianglediamonds.svg	stimuli_target_diamondcircles.svg	12	yes	57	0	255
6.6.1	mac	2022-12-25	20:19:53	20:27:56	481497	5e9f29c46a466e0a35c28dea	294382633	1	practice_z	9	practice_z	25	stimuli_distractor_diamondtriangles.svg	stimuli_distractor_trianglediamonds.svg	14	no	0	1	2000
6.6.1	mac	2022-12-25	20:19:53	20:27:56	481497	5e9f29c46a466e0a35c28dea	294382633	1	practice_z	9	advance_on_keypress_ZEE	26	stimuli_distractor_diamondtriangles.svg	stimuli_distractor_trianglediamonds.svg	14	no	57	0	569
6.6.1	mac	2022-12-25	20:19:53	20:27:59	484512	5e9f29c46a466e0a35c28dea	294382633	1	practice_z	9	practice_z	27	stimuli_distractor_trianglediamonds.svg	stimuli_target_squarediamonds.svg	11	yes	44	1	790
6.6.1	mac	2022-12-25	20:19:53	20:27:59	484512	5e9f29c46a466e0a35c28dea	294382633	1	practice_z	9	advance_on_keypress_ZEE	28	stimuli_distractor_trianglediamonds.svg	stimuli_target_squarediamonds.svg	11	yes	57	0	327
6.6.1	mac	2022-12-25	20:19:53	20:28:02	487299	5e9f29c46a466e0a35c28dea	294382633	1	practice_z	9	practice_z	29	stimuli_distractor_diamondtriangles.svg	stimuli_target_trianglecircles.svg	9	yes	44	1	820
6.6.1	mac	2022-12-25	20:19:53	20:28:02	487299	5e9f29c46a466e0a35c28dea	294382633	1	practice_z	9	advance_on_keypress_ZEE	30	stimuli_distractor_diamondtriangles.svg	stimuli_target_trianglecircles.svg	9	yes	57	0	592
6.6.1	mac	2022-12-25	20:19:53	20:28:05	490220	5e9f29c46a466e0a35c28dea	294382633	1	practice_z	9	practice_z	31	stimuli_target_squarediamonds.svg	stimuli_distractor_diamondtriangles.svg	2	yes	44	1	701
6.6.1	mac	2022-12-25	20:19:53	20:28:05	490220	5e9f29c46a466e0a35c28dea	294382633	1	practice_z	9	advance_on_keypress_ZEE	32	stimuli_target_squarediamonds.svg	stimuli_distractor_diamondtriangles.svg	2	yes	57	0	468
6.6.1	mac	2022-12-25	20:19:53	20:28:09	493960	5e9f29c46a466e0a35c28dea	294382633	1	main_z	11	main_z	1	stimuli_target_circletriangles.svg	stimuli_distractor_trianglediamonds.svg	1	yes	44	1	709
6.6.1	mac	2022-12-25	20:19:53	20:28:09	493960	5e9f29c46a466e0a35c28dea	294382633	1	main_z	11	advance_on_keypress_ZEE	2	stimuli_target_circletriangles.svg	stimuli_distractor_trianglediamonds.svg	1	yes	57	0	886
6.6.1	mac	2022-12-25	20:19:53	20:28:11	496236	5e9f29c46a466e0a35c28dea	294382633	1	main_z	11	main_z	3	stimuli_distractor_trianglediamonds.svg	stimuli_target_diamondsquares.svg	28	yes	44	1	746
6.6.1	mac	2022-12-25	20:19:53	20:28:11	496236	5e9f29c46a466e0a35c28dea	294382633	1	main_z	11	advance_on_keypress_ZEE	4	stimuli_distractor_trianglediamonds.svg	stimuli_target_diamondsquares.svg	28	yes	57	0	418
6.6.1	mac	2022-12-25	20:19:53	20:28:13	498080	5e9f29c46a466e0a35c28dea	294382633	1	main_z	11	main_z	5	stimuli_distractor_diamondtriangles.svg	stimuli_target_circletriangles.svg	13	yes	44	1	781
6.6.1	mac	2022-12-25	20:19:53	20:28:13	498080	5e9f29c46a466e0a35c28dea	294382633	1	main_z	11	advance_on_keypress_ZEE	6	stimuli_distractor_diamondtriangles.svg	stimuli_target_circletriangles.svg	13	yes	57	0	331
6.6.1	mac	2022-12-25	20:19:53	20:28:15	499841	5e9f29c46a466e0a35c28dea	294382633	1	main_z	11	main_z	7	stimuli_target_trianglesquares.svg	stimuli_distractor_trianglediamonds.svg	18	yes	44	1	790
6.6.1	mac	2022-12-25	20:19:53	20:28:15	499841	5e9f29c46a466e0a35c28dea	294382633	1	main_z	11	advance_on_keypress_ZEE	8	stimuli_target_trianglesquares.svg	stimuli_distractor_trianglediamonds.svg	18	yes	57	0	326
6.6.1	mac	2022-12-25	20:19:53	20:28:17	501624	5e9f29c46a466e0a35c28dea	294382633	1	main_z	11	main_z	9	stimuli_target_diamondsquares.svg	stimuli_distractor_diamondtriangles.svg	24	yes	44	1	837
6.6.1	mac	2022-12-25	20:19:53	20:28:17	501624	5e9f29c46a466e0a35c28dea	294382633	1	main_z	11	advance_on_keypress_ZEE	10	stimuli_target_diamondsquares.svg	stimuli_distractor_diamondtriangles.svg	24	yes	57	0	361
6.6.1	mac	2022-12-25	20:19:53	20:28:18	503343	5e9f29c46a466e0a35c28dea	294382633	1	main_z	11	main_z	11	stimuli_distractor_diamondtriangles.svg	stimuli_target_trianglecircles.svg	29	yes	44	1	738
6.6.1	mac	2022-12-25	20:19:53	20:28:18	503343	5e9f29c46a466e0a35c28dea	294382633	1	main_z	11	advance_on_keypress_ZEE	12	stimuli_distractor_diamondtriangles.svg	stimuli_target_trianglecircles.svg	29	yes	57	0	360
6.6.1	mac	2022-12-25	20:19:53	20:28:21	506338	5e9f29c46a466e0a35c28dea	294382633	1	main_z	11	main_z	13	stimuli_distractor_trianglediamonds.svg	stimuli_distractor_trianglediamonds.svg	34	no	0	1	2000
6.6.1	mac	2022-12-25	20:19:53	20:28:21	506338	5e9f29c46a466e0a35c28dea	294382633	1	main_z	11	advance_on_keypress_ZEE	14	stimuli_distractor_trianglediamonds.svg	stimuli_distractor_trianglediamonds.svg	34	no	57	0	244
6.6.1	mac	2022-12-25	20:19:53	20:28:23	508072	5e9f29c46a466e0a35c28dea	294382633	1	main_z	11	main_z	15	stimuli_target_squaretriangles.svg	stimuli_distractor_diamondtriangles.svg	7	yes	44	1	845
6.6.1	mac	2022-12-25	20:19:53	20:28:23	508072	5e9f29c46a466e0a35c28dea	294382633	1	main_z	11	advance_on_keypress_ZEE	16	stimuli_target_squaretriangles.svg	stimuli_distractor_diamondtriangles.svg	7	yes	57	0	349
6.6.1	mac	2022-12-25	20:19:53	20:28:25	509747	5e9f29c46a466e0a35c28dea	294382633	1	main_z	11	main_z	17	stimuli_target_circletriangles.svg	stimuli_distractor_diamondtriangles.svg	5	yes	44	1	684
6.6.1	mac	2022-12-25	20:19:53	20:28:25	509747	5e9f29c46a466e0a35c28dea	294382633	1	main_z	11	advance_on_keypress_ZEE	18	stimuli_target_circletriangles.svg	stimuli_distractor_diamondtriangles.svg	5	yes	57	0	337
6.6.1	mac	2022-12-25	20:19:53	20:28:26	511449	5e9f29c46a466e0a35c28dea	294382633	1	main_z	11	main_z	19	stimuli_target_squaretriangles.svg	stimuli_distractor_trianglediamonds.svg	3	yes	44	1	735
6.6.1	mac	2022-12-25	20:19:53	20:28:26	511449	5e9f29c46a466e0a35c28dea	294382633	1	main_z	11	advance_on_keypress_ZEE	20	stimuli_target_squaretriangles.svg	stimuli_distractor_trianglediamonds.svg	3	yes	57	0	357
6.6.1	mac	2022-12-25	20:19:53	20:28:28	513002	5e9f29c46a466e0a35c28dea	294382633	1	main_z	11	main_z	21	stimuli_target_diamondsquares.svg	stimuli_distractor_trianglediamonds.svg	20	yes	44	1	567
6.6.1	mac	2022-12-25	20:19:53	20:28:28	513002	5e9f29c46a466e0a35c28dea	294382633	1	main_z	11	advance_on_keypress_ZEE	22	stimuli_target_diamondsquares.svg	stimuli_distractor_trianglediamonds.svg	20	yes	57	0	296
6.6.1	mac	2022-12-25	20:19:53	20:28:30	514652	5e9f29c46a466e0a35c28dea	294382633	1	main_z	11	main_z	23	stimuli_target_squarediamonds.svg	stimuli_distractor_diamondtriangles.svg	8	yes	44	1	716
6.6.1	mac	2022-12-25	20:19:53	20:28:30	514652	5e9f29c46a466e0a35c28dea	294382633	1	main_z	11	advance_on_keypress_ZEE	24	stimuli_target_squarediamonds.svg	stimuli_distractor_diamondtriangles.svg	8	yes	57	0	300
6.6.1	mac	2022-12-25	20:19:53	20:28:33	517585	5e9f29c46a466e0a35c28dea	294382633	1	main_z	11	main_z	25	stimuli_distractor_diamondtriangles.svg	stimuli_distractor_diamondtriangles.svg	40	no	0	1	2000
6.6.1	mac	2022-12-25	20:19:53	20:28:33	517585	5e9f29c46a466e0a35c28dea	294382633	1	main_z	11	advance_on_keypress_ZEE	26	stimuli_distractor_diamondtriangles.svg	stimuli_distractor_diamondtriangles.svg	40	no	57	0	259
6.6.1	mac	2022-12-25	20:19:53	20:28:34	519171	5e9f29c46a466e0a35c28dea	294382633	1	main_z	11	main_z	27	stimuli_target_trianglesquares.svg	stimuli_distractor_diamondtriangles.svg	22	yes	44	1	698
6.6.1	mac	2022-12-25	20:19:53	20:28:34	519171	5e9f29c46a466e0a35c28dea	294382633	1	main_z	11	advance_on_keypress_ZEE	28	stimuli_target_trianglesquares.svg	stimuli_distractor_diamondtriangles.svg	22	yes	57	0	228
6.6.1	mac	2022-12-25	20:19:53	20:28:36	520688	5e9f29c46a466e0a35c28dea	294382633	1	main_z	11	main_z	29	stimuli_target_diamondcircles.svg	stimuli_distractor_diamondtriangles.svg	23	yes	44	1	645
6.6.1	mac	2022-12-25	20:19:53	20:28:36	520688	5e9f29c46a466e0a35c28dea	294382633	1	main_z	11	advance_on_keypress_ZEE	30	stimuli_target_diamondcircles.svg	stimuli_distractor_diamondtriangles.svg	23	yes	57	0	312
6.6.1	mac	2022-12-25	20:19:53	20:28:37	522368	5e9f29c46a466e0a35c28dea	294382633	1	main_z	11	main_z	31	stimuli_distractor_diamondtriangles.svg	stimuli_target_trianglesquares.svg	30	yes	44	1	720
6.6.1	mac	2022-12-25	20:19:53	20:28:37	522368	5e9f29c46a466e0a35c28dea	294382633	1	main_z	11	advance_on_keypress_ZEE	32	stimuli_distractor_diamondtriangles.svg	stimuli_target_trianglesquares.svg	30	yes	57	0	330
6.6.1	mac	2022-12-25	20:19:53	20:28:39	523942	5e9f29c46a466e0a35c28dea	294382633	1	main_z	11	main_z	33	stimuli_distractor_diamondtriangles.svg	stimuli_target_circlediamonds.svg	14	yes	44	1	608
6.6.1	mac	2022-12-25	20:19:53	20:28:39	523942	5e9f29c46a466e0a35c28dea	294382633	1	main_z	11	advance_on_keypress_ZEE	34	stimuli_distractor_diamondtriangles.svg	stimuli_target_circlediamonds.svg	14	yes	57	0	323
6.6.1	mac	2022-12-25	20:19:53	20:28:42	526899	5e9f29c46a466e0a35c28dea	294382633	1	main_z	11	main_z	35	stimuli_distractor_trianglediamonds.svg	stimuli_distractor_trianglediamonds.svg	33	no	0	1	2000
6.6.1	mac	2022-12-25	20:19:53	20:28:42	526899	5e9f29c46a466e0a35c28dea	294382633	1	main_z	11	advance_on_keypress_ZEE	36	stimuli_distractor_trianglediamonds.svg	stimuli_distractor_trianglediamonds.svg	33	no	57	0	478
6.6.1	mac	2022-12-25	20:19:53	20:28:44	528601	5e9f29c46a466e0a35c28dea	294382633	1	main_z	11	main_z	37	stimuli_distractor_diamondtriangles.svg	stimuli_target_diamondcircles.svg	31	yes	44	1	580
6.6.1	mac	2022-12-25	20:19:53	20:28:44	528601	5e9f29c46a466e0a35c28dea	294382633	1	main_z	11	advance_on_keypress_ZEE	38	stimuli_distractor_diamondtriangles.svg	stimuli_target_diamondcircles.svg	31	yes	57	0	269
6.6.1	mac	2022-12-25	20:19:53	20:28:45	530067	5e9f29c46a466e0a35c28dea	294382633	1	main_z	11	main_z	39	stimuli_distractor_trianglediamonds.svg	stimuli_target_diamondcircles.svg	27	yes	44	1	550
6.6.1	mac	2022-12-25	20:19:53	20:28:45	530067	5e9f29c46a466e0a35c28dea	294382633	1	main_z	11	advance_on_keypress_ZEE	40	stimuli_distractor_trianglediamonds.svg	stimuli_target_diamondcircles.svg	27	yes	57	0	221
6.6.1	mac	2022-12-25	20:19:53	20:28:46	531507	5e9f29c46a466e0a35c28dea	294382633	1	main_z	11	main_z	41	stimuli_target_circlediamonds.svg	stimuli_distractor_trianglediamonds.svg	2	yes	44	1	581
6.6.1	mac	2022-12-25	20:19:53	20:28:46	531507	5e9f29c46a466e0a35c28dea	294382633	1	main_z	11	advance_on_keypress_ZEE	42	stimuli_target_circlediamonds.svg	stimuli_distractor_trianglediamonds.svg	2	yes	57	0	326
6.6.1	mac	2022-12-25	20:19:53	20:28:48	533201	5e9f29c46a466e0a35c28dea	294382633	1	main_z	11	main_z	43	stimuli_distractor_diamondtriangles.svg	stimuli_target_squaretriangles.svg	15	yes	44	1	738
6.6.1	mac	2022-12-25	20:19:53	20:28:48	533201	5e9f29c46a466e0a35c28dea	294382633	1	main_z	11	advance_on_keypress_ZEE	44	stimuli_distractor_diamondtriangles.svg	stimuli_target_squaretriangles.svg	15	yes	57	0	329
6.6.1	mac	2022-12-25	20:19:53	20:28:50	535113	5e9f29c46a466e0a35c28dea	294382633	1	main_z	11	main_z	45	stimuli_distractor_trianglediamonds.svg	stimuli_target_circlediamonds.svg	10	yes	44	1	944
6.6.1	mac	2022-12-25	20:19:53	20:28:50	535113	5e9f29c46a466e0a35c28dea	294382633	1	main_z	11	advance_on_keypress_ZEE	46	stimuli_distractor_trianglediamonds.svg	stimuli_target_circlediamonds.svg	10	yes	57	0	197
6.6.1	mac	2022-12-25	20:19:53	20:28:53	537950	5e9f29c46a466e0a35c28dea	294382633	1	main_z	11	main_z	47	stimuli_distractor_trianglediamonds.svg	stimuli_distractor_diamondtriangles.svg	36	no	0	1	2000
6.6.1	mac	2022-12-25	20:19:53	20:28:53	537950	5e9f29c46a466e0a35c28dea	294382633	1	main_z	11	advance_on_keypress_ZEE	48	stimuli_distractor_trianglediamonds.svg	stimuli_distractor_diamondtriangles.svg	36	no	57	0	500
6.6.1	mac	2022-12-25	20:19:53	20:28:55	539923	5e9f29c46a466e0a35c28dea	294382633	1	main_z	11	main_z	49	stimuli_target_trianglecircles.svg	stimuli_distractor_trianglediamonds.svg	17	yes	44	1	834
6.6.1	mac	2022-12-25	20:19:53	20:28:55	539923	5e9f29c46a466e0a35c28dea	294382633	1	main_z	11	advance_on_keypress_ZEE	50	stimuli_target_trianglecircles.svg	stimuli_distractor_trianglediamonds.svg	17	yes	57	0	221
6.6.1	mac	2022-12-25	20:19:53	20:28:57	541754	5e9f29c46a466e0a35c28dea	294382633	1	main_z	11	main_z	51	stimuli_distractor_diamondtriangles.svg	stimuli_target_diamondsquares.svg	32	yes	44	1	977
6.6.1	mac	2022-12-25	20:19:53	20:28:57	541754	5e9f29c46a466e0a35c28dea	294382633	1	main_z	11	advance_on_keypress_ZEE	52	stimuli_distractor_diamondtriangles.svg	stimuli_target_diamondsquares.svg	32	yes	57	0	258
6.6.1	mac	2022-12-25	20:19:53	20:28:58	543355	5e9f29c46a466e0a35c28dea	294382633	1	main_z	11	main_z	53	stimuli_distractor_trianglediamonds.svg	stimuli_target_squarediamonds.svg	12	yes	44	1	697
6.6.1	mac	2022-12-25	20:19:53	20:28:58	543355	5e9f29c46a466e0a35c28dea	294382633	1	main_z	11	advance_on_keypress_ZEE	54	stimuli_distractor_trianglediamonds.svg	stimuli_target_squarediamonds.svg	12	yes	57	0	293
6.6.1	mac	2022-12-25	20:19:53	20:29:00	545142	5e9f29c46a466e0a35c28dea	294382633	1	main_z	11	main_z	55	stimuli_target_diamondcircles.svg	stimuli_distractor_trianglediamonds.svg	19	yes	44	1	844
6.6.1	mac	2022-12-25	20:19:53	20:29:00	545142	5e9f29c46a466e0a35c28dea	294382633	1	main_z	11	advance_on_keypress_ZEE	56	stimuli_target_diamondcircles.svg	stimuli_distractor_trianglediamonds.svg	19	yes	57	0	281
6.6.1	mac	2022-12-25	20:19:53	20:29:02	546755	5e9f29c46a466e0a35c28dea	294382633	1	main_z	11	main_z	57	stimuli_target_trianglecircles.svg	stimuli_distractor_diamondtriangles.svg	21	yes	44	1	687
6.6.1	mac	2022-12-25	20:19:53	20:29:02	546755	5e9f29c46a466e0a35c28dea	294382633	1	main_z	11	advance_on_keypress_ZEE	58	stimuli_target_trianglecircles.svg	stimuli_distractor_diamondtriangles.svg	21	yes	57	0	316
6.6.1	mac	2022-12-25	20:19:53	20:29:04	548632	5e9f29c46a466e0a35c28dea	294382633	1	main_z	11	main_z	59	stimuli_distractor_trianglediamonds.svg	stimuli_target_circletriangles.svg	9	yes	44	1	928
6.6.1	mac	2022-12-25	20:19:53	20:29:04	548632	5e9f29c46a466e0a35c28dea	294382633	1	main_z	11	advance_on_keypress_ZEE	60	stimuli_distractor_trianglediamonds.svg	stimuli_target_circletriangles.svg	9	yes	57	0	261
6.6.1	mac	2022-12-25	20:19:53	20:29:05	550355	5e9f29c46a466e0a35c28dea	294382633	1	main_z	11	main_z	61	stimuli_distractor_trianglediamonds.svg	stimuli_target_trianglecircles.svg	25	yes	44	1	815
6.6.1	mac	2022-12-25	20:19:53	20:29:05	550355	5e9f29c46a466e0a35c28dea	294382633	1	main_z	11	advance_on_keypress_ZEE	62	stimuli_distractor_trianglediamonds.svg	stimuli_target_trianglecircles.svg	25	yes	57	0	311
6.6.1	mac	2022-12-25	20:19:53	20:29:08	553307	5e9f29c46a466e0a35c28dea	294382633	1	main_z	11	main_z	63	stimuli_distractor_diamondtriangles.svg	stimuli_distractor_diamondtriangles.svg	39	no	0	1	2000
6.6.1	mac	2022-12-25	20:19:53	20:29:08	553307	5e9f29c46a466e0a35c28dea	294382633	1	main_z	11	advance_on_keypress_ZEE	64	stimuli_distractor_diamondtriangles.svg	stimuli_distractor_diamondtriangles.svg	39	no	57	0	373
6.6.1	mac	2022-12-25	20:19:53	20:29:10	555444	5e9f29c46a466e0a35c28dea	294382633	1	main_z	11	main_z	65	stimuli_distractor_diamondtriangles.svg	stimuli_distractor_trianglediamonds.svg	38	no	44	0	1131
6.6.1	mac	2022-12-25	20:19:53	20:29:10	555444	5e9f29c46a466e0a35c28dea	294382633	1	main_z	11	advance_on_keypress_ZEE	66	stimuli_distractor_diamondtriangles.svg	stimuli_distractor_trianglediamonds.svg	38	no	57	0	232
6.6.1	mac	2022-12-25	20:19:53	20:29:12	557253	5e9f29c46a466e0a35c28dea	294382633	1	main_z	11	main_z	67	stimuli_distractor_trianglediamonds.svg	stimuli_target_squaretriangles.svg	11	yes	44	1	925
6.6.1	mac	2022-12-25	20:19:53	20:29:12	557253	5e9f29c46a466e0a35c28dea	294382633	1	main_z	11	advance_on_keypress_ZEE	68	stimuli_distractor_trianglediamonds.svg	stimuli_target_squaretriangles.svg	11	yes	57	0	275
6.6.1	mac	2022-12-25	20:19:53	20:29:15	560149	5e9f29c46a466e0a35c28dea	294382633	1	main_z	11	main_z	69	stimuli_distractor_diamondtriangles.svg	stimuli_distractor_trianglediamonds.svg	37	no	0	1	2000
6.6.1	mac	2022-12-25	20:19:53	20:29:15	560149	5e9f29c46a466e0a35c28dea	294382633	1	main_z	11	advance_on_keypress_ZEE	70	stimuli_distractor_diamondtriangles.svg	stimuli_distractor_trianglediamonds.svg	37	no	57	0	969
6.6.1	mac	2022-12-25	20:19:53	20:29:18	562617	5e9f29c46a466e0a35c28dea	294382633	1	main_z	11	main_z	71	stimuli_target_squarediamonds.svg	stimuli_distractor_trianglediamonds.svg	4	yes	44	1	863
6.6.1	mac	2022-12-25	20:19:53	20:29:18	562617	5e9f29c46a466e0a35c28dea	294382633	1	main_z	11	advance_on_keypress_ZEE	72	stimuli_target_squarediamonds.svg	stimuli_distractor_trianglediamonds.svg	4	yes	57	0	270
6.6.1	mac	2022-12-25	20:19:53	20:29:19	564349	5e9f29c46a466e0a35c28dea	294382633	1	main_z	11	main_z	73	stimuli_distractor_trianglediamonds.svg	stimuli_target_trianglesquares.svg	26	yes	44	1	824
6.6.1	mac	2022-12-25	20:19:53	20:29:19	564349	5e9f29c46a466e0a35c28dea	294382633	1	main_z	11	advance_on_keypress_ZEE	74	stimuli_distractor_trianglediamonds.svg	stimuli_target_trianglesquares.svg	26	yes	57	0	267
6.6.1	mac	2022-12-25	20:19:53	20:29:22	567242	5e9f29c46a466e0a35c28dea	294382633	1	main_z	11	main_z	75	stimuli_distractor_trianglediamonds.svg	stimuli_distractor_diamondtriangles.svg	35	no	0	1	2000
6.6.1	mac	2022-12-25	20:19:53	20:29:22	567242	5e9f29c46a466e0a35c28dea	294382633	1	main_z	11	advance_on_keypress_ZEE	76	stimuli_distractor_trianglediamonds.svg	stimuli_distractor_diamondtriangles.svg	35	no	57	0	677
6.6.1	mac	2022-12-25	20:19:53	20:29:24	569388	5e9f29c46a466e0a35c28dea	294382633	1	main_z	11	main_z	77	stimuli_distractor_diamondtriangles.svg	stimuli_target_squarediamonds.svg	16	yes	44	1	823
6.6.1	mac	2022-12-25	20:19:53	20:29:24	569388	5e9f29c46a466e0a35c28dea	294382633	1	main_z	11	advance_on_keypress_ZEE	78	stimuli_distractor_diamondtriangles.svg	stimuli_target_squarediamonds.svg	16	yes	57	0	182
6.6.1	mac	2022-12-25	20:19:53	20:29:26	570909	5e9f29c46a466e0a35c28dea	294382633	1	main_z	11	main_z	79	stimuli_target_circlediamonds.svg	stimuli_distractor_diamondtriangles.svg	6	yes	44	1	709
6.6.1	mac	2022-12-25	20:19:53	20:29:26	570909	5e9f29c46a466e0a35c28dea	294382633	1	main_z	11	advance_on_keypress_ZEE	80	stimuli_target_circlediamonds.svg	stimuli_distractor_diamondtriangles.svg	6	yes	57	0	239
6.6.1	mac	2022-12-25	20:19:53	20:29:29	573784	5e9f29c46a466e0a35c28dea	294382633	1	main_z	11	main_z	81	stimuli_distractor_diamondtriangles.svg	stimuli_distractor_trianglediamonds.svg	37	no	0	1	2000
6.6.1	mac	2022-12-25	20:19:53	20:29:29	573784	5e9f29c46a466e0a35c28dea	294382633	1	main_z	11	advance_on_keypress_ZEE	82	stimuli_distractor_diamondtriangles.svg	stimuli_distractor_trianglediamonds.svg	37	no	57	0	419
6.6.1	mac	2022-12-25	20:19:53	20:29:31	575522	5e9f29c46a466e0a35c28dea	294382633	1	main_z	11	main_z	83	stimuli_target_squarediamonds.svg	stimuli_distractor_diamondtriangles.svg	8	yes	44	1	683
6.6.1	mac	2022-12-25	20:19:53	20:29:31	575522	5e9f29c46a466e0a35c28dea	294382633	1	main_z	11	advance_on_keypress_ZEE	84	stimuli_target_squarediamonds.svg	stimuli_distractor_diamondtriangles.svg	8	yes	57	0	276
6.6.1	mac	2022-12-25	20:19:53	20:29:33	578439	5e9f29c46a466e0a35c28dea	294382633	1	main_z	11	main_z	85	stimuli_distractor_trianglediamonds.svg	stimuli_distractor_trianglediamonds.svg	33	no	0	1	2000
6.6.1	mac	2022-12-25	20:19:53	20:29:33	578439	5e9f29c46a466e0a35c28dea	294382633	1	main_z	11	advance_on_keypress_ZEE	86	stimuli_distractor_trianglediamonds.svg	stimuli_distractor_trianglediamonds.svg	33	no	57	0	255
6.6.1	mac	2022-12-25	20:19:53	20:29:35	580170	5e9f29c46a466e0a35c28dea	294382633	1	main_z	11	main_z	87	stimuli_distractor_diamondtriangles.svg	stimuli_target_diamondsquares.svg	32	yes	44	1	839
6.6.1	mac	2022-12-25	20:19:53	20:29:35	580170	5e9f29c46a466e0a35c28dea	294382633	1	main_z	11	advance_on_keypress_ZEE	88	stimuli_distractor_diamondtriangles.svg	stimuli_target_diamondsquares.svg	32	yes	57	0	227
6.6.1	mac	2022-12-25	20:19:53	20:29:37	581900	5e9f29c46a466e0a35c28dea	294382633	1	main_z	11	main_z	89	stimuli_target_diamondsquares.svg	stimuli_distractor_diamondtriangles.svg	24	yes	44	1	868
6.6.1	mac	2022-12-25	20:19:53	20:29:37	581900	5e9f29c46a466e0a35c28dea	294382633	1	main_z	11	advance_on_keypress_ZEE	90	stimuli_target_diamondsquares.svg	stimuli_distractor_diamondtriangles.svg	24	yes	57	0	230
6.6.1	mac	2022-12-25	20:19:53	20:29:39	583590	5e9f29c46a466e0a35c28dea	294382633	1	main_z	11	main_z	91	stimuli_distractor_trianglediamonds.svg	stimuli_target_trianglecircles.svg	25	yes	44	1	820
6.6.1	mac	2022-12-25	20:19:53	20:29:39	583590	5e9f29c46a466e0a35c28dea	294382633	1	main_z	11	advance_on_keypress_ZEE	92	stimuli_distractor_trianglediamonds.svg	stimuli_target_trianglecircles.svg	25	yes	57	0	251
6.6.1	mac	2022-12-25	20:19:53	20:29:40	585136	5e9f29c46a466e0a35c28dea	294382633	1	main_z	11	main_z	93	stimuli_target_squarediamonds.svg	stimuli_distractor_trianglediamonds.svg	4	yes	44	1	664
6.6.1	mac	2022-12-25	20:19:53	20:29:40	585136	5e9f29c46a466e0a35c28dea	294382633	1	main_z	11	advance_on_keypress_ZEE	94	stimuli_target_squarediamonds.svg	stimuli_distractor_trianglediamonds.svg	4	yes	57	0	350
6.6.1	mac	2022-12-25	20:19:53	20:29:42	586905	5e9f29c46a466e0a35c28dea	294382633	1	main_z	11	main_z	95	stimuli_target_trianglecircles.svg	stimuli_distractor_diamondtriangles.svg	21	yes	44	1	780
6.6.1	mac	2022-12-25	20:19:53	20:29:42	586905	5e9f29c46a466e0a35c28dea	294382633	1	main_z	11	advance_on_keypress_ZEE	96	stimuli_target_trianglecircles.svg	stimuli_distractor_diamondtriangles.svg	21	yes	57	0	297
6.6.1	mac	2022-12-25	20:19:53	20:29:44	588720	5e9f29c46a466e0a35c28dea	294382633	1	main_z	11	main_z	97	stimuli_target_squaretriangles.svg	stimuli_distractor_trianglediamonds.svg	3	yes	44	1	873
6.6.1	mac	2022-12-25	20:19:53	20:29:44	588720	5e9f29c46a466e0a35c28dea	294382633	1	main_z	11	advance_on_keypress_ZEE	98	stimuli_target_squaretriangles.svg	stimuli_distractor_trianglediamonds.svg	3	yes	57	0	279
6.6.1	mac	2022-12-25	20:19:53	20:29:45	590463	5e9f29c46a466e0a35c28dea	294382633	1	main_z	11	main_z	99	stimuli_distractor_diamondtriangles.svg	stimuli_target_circletriangles.svg	13	yes	44	1	813
6.6.1	mac	2022-12-25	20:19:53	20:29:45	590463	5e9f29c46a466e0a35c28dea	294382633	1	main_z	11	advance_on_keypress_ZEE	100	stimuli_distractor_diamondtriangles.svg	stimuli_target_circletriangles.svg	13	yes	57	0	318
6.6.1	mac	2022-12-25	20:19:53	20:29:47	592227	5e9f29c46a466e0a35c28dea	294382633	1	main_z	11	main_z	101	stimuli_distractor_diamondtriangles.svg	stimuli_target_diamondcircles.svg	31	yes	44	1	809
6.6.1	mac	2022-12-25	20:19:53	20:29:47	592227	5e9f29c46a466e0a35c28dea	294382633	1	main_z	11	advance_on_keypress_ZEE	102	stimuli_distractor_diamondtriangles.svg	stimuli_target_diamondcircles.svg	31	yes	57	0	323
6.6.1	mac	2022-12-25	20:19:53	20:29:49	594516	5e9f29c46a466e0a35c28dea	294382633	1	main_z	11	main_z	103	stimuli_target_diamondcircles.svg	stimuli_distractor_trianglediamonds.svg	19	yes	44	1	1329
6.6.1	mac	2022-12-25	20:19:53	20:29:49	594516	5e9f29c46a466e0a35c28dea	294382633	1	main_z	11	advance_on_keypress_ZEE	104	stimuli_target_diamondcircles.svg	stimuli_distractor_trianglediamonds.svg	19	yes	57	0	178
6.6.1	mac	2022-12-25	20:19:53	20:29:51	596275	5e9f29c46a466e0a35c28dea	294382633	1	main_z	11	main_z	105	stimuli_distractor_diamondtriangles.svg	stimuli_target_trianglecircles.svg	29	yes	44	1	935
6.6.1	mac	2022-12-25	20:19:53	20:29:51	596275	5e9f29c46a466e0a35c28dea	294382633	1	main_z	11	advance_on_keypress_ZEE	106	stimuli_distractor_diamondtriangles.svg	stimuli_target_trianglecircles.svg	29	yes	57	0	246
6.6.1	mac	2022-12-25	20:19:53	20:29:53	598306	5e9f29c46a466e0a35c28dea	294382633	1	main_z	11	main_z	107	stimuli_target_circletriangles.svg	stimuli_distractor_diamondtriangles.svg	5	yes	44	1	1147
6.6.1	mac	2022-12-25	20:19:53	20:29:53	598306	5e9f29c46a466e0a35c28dea	294382633	1	main_z	11	advance_on_keypress_ZEE	108	stimuli_target_circletriangles.svg	stimuli_distractor_diamondtriangles.svg	5	yes	57	0	291
6.6.1	mac	2022-12-25	20:19:53	20:29:55	600164	5e9f29c46a466e0a35c28dea	294382633	1	main_z	11	main_z	109	stimuli_distractor_diamondtriangles.svg	stimuli_target_trianglesquares.svg	30	yes	44	1	869
6.6.1	mac	2022-12-25	20:19:53	20:29:55	600164	5e9f29c46a466e0a35c28dea	294382633	1	main_z	11	advance_on_keypress_ZEE	110	stimuli_distractor_diamondtriangles.svg	stimuli_target_trianglesquares.svg	30	yes	57	0	249
6.6.1	mac	2022-12-25	20:19:53	20:29:57	601921	5e9f29c46a466e0a35c28dea	294382633	1	main_z	11	main_z	111	stimuli_target_trianglesquares.svg	stimuli_distractor_trianglediamonds.svg	18	yes	44	1	872
6.6.1	mac	2022-12-25	20:19:53	20:29:57	601921	5e9f29c46a466e0a35c28dea	294382633	1	main_z	11	advance_on_keypress_ZEE	112	stimuli_target_trianglesquares.svg	stimuli_distractor_trianglediamonds.svg	18	yes	57	0	299
6.6.1	mac	2022-12-25	20:19:53	20:29:59	603873	5e9f29c46a466e0a35c28dea	294382633	1	main_z	11	main_z	113	stimuli_distractor_trianglediamonds.svg	stimuli_target_squarediamonds.svg	12	yes	44	1	1009
6.6.1	mac	2022-12-25	20:19:53	20:29:59	603873	5e9f29c46a466e0a35c28dea	294382633	1	main_z	11	advance_on_keypress_ZEE	114	stimuli_distractor_trianglediamonds.svg	stimuli_target_squarediamonds.svg	12	yes	57	0	281
6.6.1	mac	2022-12-25	20:19:53	20:30:01	605590	5e9f29c46a466e0a35c28dea	294382633	1	main_z	11	main_z	115	stimuli_target_diamondcircles.svg	stimuli_distractor_diamondtriangles.svg	23	yes	44	1	802
6.6.1	mac	2022-12-25	20:19:53	20:30:01	605590	5e9f29c46a466e0a35c28dea	294382633	1	main_z	11	advance_on_keypress_ZEE	116	stimuli_target_diamondcircles.svg	stimuli_distractor_diamondtriangles.svg	23	yes	57	0	294
6.6.1	mac	2022-12-25	20:19:53	20:30:02	607333	5e9f29c46a466e0a35c28dea	294382633	1	main_z	11	main_z	117	stimuli_target_circlediamonds.svg	stimuli_distractor_diamondtriangles.svg	6	yes	44	1	825
6.6.1	mac	2022-12-25	20:19:53	20:30:02	607333	5e9f29c46a466e0a35c28dea	294382633	1	main_z	11	advance_on_keypress_ZEE	118	stimuli_target_circlediamonds.svg	stimuli_distractor_diamondtriangles.svg	6	yes	57	0	350
6.6.1	mac	2022-12-25	20:19:53	20:30:04	609135	5e9f29c46a466e0a35c28dea	294382633	1	main_z	11	main_z	119	stimuli_target_diamondsquares.svg	stimuli_distractor_trianglediamonds.svg	20	yes	44	1	810
6.6.1	mac	2022-12-25	20:19:53	20:30:04	609135	5e9f29c46a466e0a35c28dea	294382633	1	main_z	11	advance_on_keypress_ZEE	120	stimuli_target_diamondsquares.svg	stimuli_distractor_trianglediamonds.svg	20	yes	57	0	272
6.6.1	mac	2022-12-25	20:19:53	20:30:07	612044	5e9f29c46a466e0a35c28dea	294382633	1	main_z	11	main_z	121	stimuli_distractor_trianglediamonds.svg	stimuli_distractor_diamondtriangles.svg	35	no	0	1	2000
6.6.1	mac	2022-12-25	20:19:53	20:30:07	612044	5e9f29c46a466e0a35c28dea	294382633	1	main_z	11	advance_on_keypress_ZEE	122	stimuli_distractor_trianglediamonds.svg	stimuli_distractor_diamondtriangles.svg	35	no	57	0	230
6.6.1	mac	2022-12-25	20:19:53	20:30:09	613728	5e9f29c46a466e0a35c28dea	294382633	1	main_z	11	main_z	123	stimuli_distractor_trianglediamonds.svg	stimuli_target_circletriangles.svg	9	yes	44	1	813
6.6.1	mac	2022-12-25	20:19:53	20:30:09	613728	5e9f29c46a466e0a35c28dea	294382633	1	main_z	11	advance_on_keypress_ZEE	124	stimuli_distractor_trianglediamonds.svg	stimuli_target_circletriangles.svg	9	yes	57	0	259
6.6.1	mac	2022-12-25	20:19:53	20:30:10	615388	5e9f29c46a466e0a35c28dea	294382633	1	main_z	11	main_z	125	stimuli_target_circlediamonds.svg	stimuli_distractor_trianglediamonds.svg	2	yes	44	1	756
6.6.1	mac	2022-12-25	20:19:53	20:30:10	615388	5e9f29c46a466e0a35c28dea	294382633	1	main_z	11	advance_on_keypress_ZEE	126	stimuli_target_circlediamonds.svg	stimuli_distractor_trianglediamonds.svg	2	yes	57	0	326
6.6.1	mac	2022-12-25	20:19:53	20:30:12	616946	5e9f29c46a466e0a35c28dea	294382633	1	main_z	11	main_z	127	stimuli_distractor_trianglediamonds.svg	stimuli_target_squaretriangles.svg	11	yes	44	1	611
6.6.1	mac	2022-12-25	20:19:53	20:30:12	616946	5e9f29c46a466e0a35c28dea	294382633	1	main_z	11	advance_on_keypress_ZEE	128	stimuli_distractor_trianglediamonds.svg	stimuli_target_squaretriangles.svg	11	yes	57	0	342
6.6.1	mac	2022-12-25	20:19:53	20:30:13	618440	5e9f29c46a466e0a35c28dea	294382633	1	main_z	11	main_z	129	stimuli_distractor_trianglediamonds.svg	stimuli_target_circlediamonds.svg	10	yes	44	1	514
6.6.1	mac	2022-12-25	20:19:53	20:30:13	618440	5e9f29c46a466e0a35c28dea	294382633	1	main_z	11	advance_on_keypress_ZEE	130	stimuli_distractor_trianglediamonds.svg	stimuli_target_circlediamonds.svg	10	yes	57	0	298
6.6.1	mac	2022-12-25	20:19:53	20:30:16	621385	5e9f29c46a466e0a35c28dea	294382633	1	main_z	11	main_z	131	stimuli_distractor_diamondtriangles.svg	stimuli_distractor_diamondtriangles.svg	40	no	0	1	2000
6.6.1	mac	2022-12-25	20:19:53	20:30:16	621385	5e9f29c46a466e0a35c28dea	294382633	1	main_z	11	advance_on_keypress_ZEE	132	stimuli_distractor_diamondtriangles.svg	stimuli_distractor_diamondtriangles.svg	40	no	57	0	452
6.6.1	mac	2022-12-25	20:19:53	20:30:18	623159	5e9f29c46a466e0a35c28dea	294382633	1	main_z	11	main_z	133	stimuli_target_trianglecircles.svg	stimuli_distractor_trianglediamonds.svg	17	yes	44	1	685
6.6.1	mac	2022-12-25	20:19:53	20:30:18	623159	5e9f29c46a466e0a35c28dea	294382633	1	main_z	11	advance_on_keypress_ZEE	134	stimuli_target_trianglecircles.svg	stimuli_distractor_trianglediamonds.svg	17	yes	57	0	270
6.6.1	mac	2022-12-25	20:19:53	20:30:20	624641	5e9f29c46a466e0a35c28dea	294382633	1	main_z	11	main_z	135	stimuli_distractor_trianglediamonds.svg	stimuli_target_trianglesquares.svg	26	yes	44	1	580
6.6.1	mac	2022-12-25	20:19:53	20:30:20	624641	5e9f29c46a466e0a35c28dea	294382633	1	main_z	11	advance_on_keypress_ZEE	136	stimuli_distractor_trianglediamonds.svg	stimuli_target_trianglesquares.svg	26	yes	57	0	312
6.6.1	mac	2022-12-25	20:19:53	20:30:21	626290	5e9f29c46a466e0a35c28dea	294382633	1	main_z	11	main_z	137	stimuli_distractor_trianglediamonds.svg	stimuli_target_diamondsquares.svg	28	yes	44	1	708
6.6.1	mac	2022-12-25	20:19:53	20:30:21	626290	5e9f29c46a466e0a35c28dea	294382633	1	main_z	11	advance_on_keypress_ZEE	138	stimuli_distractor_trianglediamonds.svg	stimuli_target_diamondsquares.svg	28	yes	57	0	267
6.6.1	mac	2022-12-25	20:19:53	20:30:23	628023	5e9f29c46a466e0a35c28dea	294382633	1	main_z	11	main_z	139	stimuli_distractor_diamondtriangles.svg	stimuli_target_circlediamonds.svg	14	yes	44	1	823
6.6.1	mac	2022-12-25	20:19:53	20:30:23	628023	5e9f29c46a466e0a35c28dea	294382633	1	main_z	11	advance_on_keypress_ZEE	140	stimuli_distractor_diamondtriangles.svg	stimuli_target_circlediamonds.svg	14	yes	57	0	259
6.6.1	mac	2022-12-25	20:19:53	20:30:26	630898	5e9f29c46a466e0a35c28dea	294382633	1	main_z	11	main_z	141	stimuli_distractor_trianglediamonds.svg	stimuli_distractor_diamondtriangles.svg	36	no	0	1	2000
6.6.1	mac	2022-12-25	20:19:53	20:30:26	630898	5e9f29c46a466e0a35c28dea	294382633	1	main_z	11	advance_on_keypress_ZEE	142	stimuli_distractor_trianglediamonds.svg	stimuli_distractor_diamondtriangles.svg	36	no	57	0	14
6.6.1	mac	2022-12-25	20:19:53	20:30:28	632700	5e9f29c46a466e0a35c28dea	294382633	1	main_z	11	main_z	143	stimuli_distractor_diamondtriangles.svg	stimuli_target_squaretriangles.svg	15	yes	44	1	1148
6.6.1	mac	2022-12-25	20:19:53	20:30:28	632700	5e9f29c46a466e0a35c28dea	294382633	1	main_z	11	advance_on_keypress_ZEE	144	stimuli_distractor_diamondtriangles.svg	stimuli_target_squaretriangles.svg	15	yes	57	0	210
6.6.1	mac	2022-12-25	20:19:53	20:30:29	634376	5e9f29c46a466e0a35c28dea	294382633	1	main_z	11	main_z	145	stimuli_distractor_trianglediamonds.svg	stimuli_target_diamondcircles.svg	27	yes	44	1	838
6.6.1	mac	2022-12-25	20:19:53	20:30:29	634376	5e9f29c46a466e0a35c28dea	294382633	1	main_z	11	advance_on_keypress_ZEE	146	stimuli_distractor_trianglediamonds.svg	stimuli_target_diamondcircles.svg	27	yes	57	0	283
6.6.1	mac	2022-12-25	20:19:53	20:30:31	636154	5e9f29c46a466e0a35c28dea	294382633	1	main_z	11	main_z	147	stimuli_target_trianglesquares.svg	stimuli_distractor_diamondtriangles.svg	22	yes	44	1	863
6.6.1	mac	2022-12-25	20:19:53	20:30:31	636154	5e9f29c46a466e0a35c28dea	294382633	1	main_z	11	advance_on_keypress_ZEE	148	stimuli_target_trianglesquares.svg	stimuli_distractor_diamondtriangles.svg	22	yes	57	0	235
6.6.1	mac	2022-12-25	20:19:53	20:30:33	637727	5e9f29c46a466e0a35c28dea	294382633	1	main_z	11	main_z	149	stimuli_target_circletriangles.svg	stimuli_distractor_trianglediamonds.svg	1	yes	44	1	701
6.6.1	mac	2022-12-25	20:19:53	20:30:33	637727	5e9f29c46a466e0a35c28dea	294382633	1	main_z	11	advance_on_keypress_ZEE	150	stimuli_target_circletriangles.svg	stimuli_distractor_trianglediamonds.svg	1	yes	57	0	312
6.6.1	mac	2022-12-25	20:19:53	20:30:34	639486	5e9f29c46a466e0a35c28dea	294382633	1	main_z	11	main_z	151	stimuli_target_squaretriangles.svg	stimuli_distractor_diamondtriangles.svg	7	yes	44	1	804
6.6.1	mac	2022-12-25	20:19:53	20:30:34	639486	5e9f29c46a466e0a35c28dea	294382633	1	main_z	11	advance_on_keypress_ZEE	152	stimuli_target_squaretriangles.svg	stimuli_distractor_diamondtriangles.svg	7	yes	57	0	265
6.6.1	mac	2022-12-25	20:19:53	20:30:37	642380	5e9f29c46a466e0a35c28dea	294382633	1	main_z	11	main_z	153	stimuli_distractor_diamondtriangles.svg	stimuli_distractor_trianglediamonds.svg	38	no	0	1	2000
6.6.1	mac	2022-12-25	20:19:53	20:30:37	642380	5e9f29c46a466e0a35c28dea	294382633	1	main_z	11	advance_on_keypress_ZEE	154	stimuli_distractor_diamondtriangles.svg	stimuli_distractor_trianglediamonds.svg	38	no	57	0	539
6.6.1	mac	2022-12-25	20:19:53	20:30:41	645549	5e9f29c46a466e0a35c28dea	294382633	1	main_z	11	main_z	155	stimuli_distractor_trianglediamonds.svg	stimuli_distractor_trianglediamonds.svg	34	no	0	1	2000
6.6.1	mac	2022-12-25	20:19:53	20:30:41	645549	5e9f29c46a466e0a35c28dea	294382633	1	main_z	11	advance_on_keypress_ZEE	156	stimuli_distractor_trianglediamonds.svg	stimuli_distractor_trianglediamonds.svg	34	no	57	0	296
6.6.1	mac	2022-12-25	20:19:53	20:30:42	647185	5e9f29c46a466e0a35c28dea	294382633	1	main_z	11	main_z	157	stimuli_distractor_diamondtriangles.svg	stimuli_target_squarediamonds.svg	16	yes	44	1	697
6.6.1	mac	2022-12-25	20:19:53	20:30:42	647185	5e9f29c46a466e0a35c28dea	294382633	1	main_z	11	advance_on_keypress_ZEE	158	stimuli_distractor_diamondtriangles.svg	stimuli_target_squarediamonds.svg	16	yes	57	0	272
6.6.1	mac	2022-12-25	20:19:53	20:30:45	650089	5e9f29c46a466e0a35c28dea	294382633	1	main_z	11	main_z	159	stimuli_distractor_diamondtriangles.svg	stimuli_distractor_diamondtriangles.svg	39	no	0	1	2000
6.6.1	mac	2022-12-25	20:19:53	20:30:45	650089	5e9f29c46a466e0a35c28dea	294382633	1	main_z	11	advance_on_keypress_ZEE	160	stimuli_distractor_diamondtriangles.svg	stimuli_distractor_diamondtriangles.svg	39	no	57	0	516