build	computer.platform	date	time	timestamp	time_elapsed_ms	subject	group	session	blockcode	blocknum	trialcode	trialnum	stimulus_left	stimulus_right	stim_index	target_present	response	correct	latency
6.6.1	win	2022-12-26	22:47:28	22:50:33	179648	5acb69b70527ba0001c25872	804367565	1	practice_slash	5	practice_slash	1	stimuli_target_diamondsquares.svg	stimuli_distractor_trianglediamonds.svg	6	yes	0	0	2000
6.6.1	win	2022-12-26	22:47:28	22:50:33	179648	5acb69b70527ba0001c25872	804367565	1	practice_slash	5	advance_on_keypress_SLASH	2	stimuli_target_diamondsquares.svg	stimuli_distractor_trianglediamonds.svg	6	yes	57	0	913
6.6.1	win	2022-12-26	22:47:28	22:50:37	184205	5acb69b70527ba0001c25872	804367565	1	practice_slash	5	practice_slash	3	stimuli_distractor_trianglediamonds.svg	stimuli_target_diamondcircles.svg	12	yes	0	0	2000
6.6.1	win	2022-12-26	22:47:28	22:50:37	184205	5acb69b70527ba0001c25872	804367565	1	practice_slash	5	advance_on_keypress_SLASH	4	stimuli_distractor_trianglediamonds.svg	stimuli_target_diamondcircles.svg	12	yes	57	0	2253
6.6.1	win	2022-12-26	22:47:28	22:50:43	190121	5acb69b70527ba0001c25872	804367565	1	practice_slash	5	practice_slash	5	stimuli_target_squarediamonds.svg	stimuli_distractor_trianglediamonds.svg	5	yes	0	0	2000
6.6.1	win	2022-12-26	22:47:28	22:50:43	190121	5acb69b70527ba0001c25872	804367565	1	practice_slash	5	advance_on_keypress_SLASH	6	stimuli_target_squarediamonds.svg	stimuli_distractor_trianglediamonds.svg	5	yes	57	0	670
6.6.1	win	2022-12-26	22:47:28	22:50:46	192920	5acb69b70527ba0001c25872	804367565	1	practice_slash	5	practice_slash	7	stimuli_target_squarediamonds.svg	stimuli_distractor_diamondtriangles.svg	2	yes	53	1	492
6.6.1	win	2022-12-26	22:47:28	22:50:46	192920	5acb69b70527ba0001c25872	804367565	1	practice_slash	5	advance_on_keypress_SLASH	8	stimuli_target_squarediamonds.svg	stimuli_distractor_diamondtriangles.svg	2	yes	57	0	586
6.6.1	win	2022-12-26	22:47:28	22:50:50	197156	5acb69b70527ba0001c25872	804367565	1	practice_slash	5	practice_slash	9	stimuli_distractor_trianglediamonds.svg	stimuli_distractor_diamondtriangles.svg	16	no	0	1	2000
6.6.1	win	2022-12-26	22:47:28	22:50:50	197156	5acb69b70527ba0001c25872	804367565	1	practice_slash	5	advance_on_keypress_SLASH	10	stimuli_distractor_trianglediamonds.svg	stimuli_distractor_diamondtriangles.svg	16	no	57	0	823
6.6.1	win	2022-12-26	22:47:28	22:50:54	200568	5acb69b70527ba0001c25872	804367565	1	practice_slash	5	practice_slash	11	stimuli_target_circlediamonds.svg	stimuli_distractor_trianglediamonds.svg	4	yes	53	1	938
6.6.1	win	2022-12-26	22:47:28	22:50:54	200568	5acb69b70527ba0001c25872	804367565	1	practice_slash	5	advance_on_keypress_SLASH	12	stimuli_target_circlediamonds.svg	stimuli_distractor_trianglediamonds.svg	4	yes	57	0	729
6.6.1	win	2022-12-26	22:47:28	22:50:58	204948	5acb69b70527ba0001c25872	804367565	1	practice_slash	5	practice_slash	13	stimuli_distractor_diamondtriangles.svg	stimuli_distractor_trianglediamonds.svg	14	no	0	1	2000
6.6.1	win	2022-12-26	22:47:28	22:50:58	204948	5acb69b70527ba0001c25872	804367565	1	practice_slash	5	advance_on_keypress_SLASH	14	stimuli_distractor_diamondtriangles.svg	stimuli_distractor_trianglediamonds.svg	14	no	57	0	481
6.6.1	win	2022-12-26	22:47:28	22:51:02	209065	5acb69b70527ba0001c25872	804367565	1	practice_slash	5	practice_slash	15	stimuli_target_diamondsquares.svg	stimuli_distractor_diamondtriangles.svg	3	yes	0	0	2000
6.6.1	win	2022-12-26	22:47:28	22:51:02	209065	5acb69b70527ba0001c25872	804367565	1	practice_slash	5	advance_on_keypress_SLASH	16	stimuli_target_diamondsquares.svg	stimuli_distractor_diamondtriangles.svg	3	yes	57	0	1457
6.6.1	win	2022-12-26	22:47:28	22:51:06	213019	5acb69b70527ba0001c25872	804367565	1	practice_slash	5	practice_slash	17	stimuli_distractor_diamondtriangles.svg	stimuli_target_circletriangles.svg	7	yes	53	1	870
6.6.1	win	2022-12-26	22:47:28	22:51:06	213019	5acb69b70527ba0001c25872	804367565	1	practice_slash	5	advance_on_keypress_SLASH	18	stimuli_distractor_diamondtriangles.svg	stimuli_target_circletriangles.svg	7	yes	57	0	395
6.6.1	win	2022-12-26	22:47:28	22:51:09	216100	5acb69b70527ba0001c25872	804367565	1	practice_slash	5	practice_slash	19	stimuli_distractor_diamondtriangles.svg	stimuli_target_trianglecircles.svg	9	yes	53	1	1029
6.6.1	win	2022-12-26	22:47:28	22:51:09	216100	5acb69b70527ba0001c25872	804367565	1	practice_slash	5	advance_on_keypress_SLASH	20	stimuli_distractor_diamondtriangles.svg	stimuli_target_trianglecircles.svg	9	yes	57	0	341
6.6.1	win	2022-12-26	22:47:28	22:51:13	219545	5acb69b70527ba0001c25872	804367565	1	practice_slash	5	practice_slash	21	stimuli_distractor_trianglediamonds.svg	stimuli_target_squarediamonds.svg	11	yes	53	1	1467
6.6.1	win	2022-12-26	22:47:28	22:51:13	219545	5acb69b70527ba0001c25872	804367565	1	practice_slash	5	advance_on_keypress_SLASH	22	stimuli_distractor_trianglediamonds.svg	stimuli_target_squarediamonds.svg	11	yes	57	0	389
6.6.1	win	2022-12-26	22:47:28	22:51:17	223561	5acb69b70527ba0001c25872	804367565	1	practice_slash	5	practice_slash	23	stimuli_distractor_diamondtriangles.svg	stimuli_target_diamondcircles.svg	8	yes	0	0	2000
6.6.1	win	2022-12-26	22:47:28	22:51:17	223561	5acb69b70527ba0001c25872	804367565	1	practice_slash	5	advance_on_keypress_SLASH	24	stimuli_distractor_diamondtriangles.svg	stimuli_target_diamondcircles.svg	8	yes	57	0	321
6.6.1	win	2022-12-26	22:47:28	22:51:21	227521	5acb69b70527ba0001c25872	804367565	1	practice_slash	5	practice_slash	25	stimuli_distractor_diamondtriangles.svg	stimuli_distractor_diamondtriangles.svg	13	no	0	1	2000
6.6.1	win	2022-12-26	22:47:28	22:51:21	227521	5acb69b70527ba0001c25872	804367565	1	practice_slash	5	advance_on_keypress_SLASH	26	stimuli_distractor_diamondtriangles.svg	stimuli_distractor_diamondtriangles.svg	13	no	57	0	315
6.6.1	win	2022-12-26	22:47:28	22:51:24	230534	5acb69b70527ba0001c25872	804367565	1	practice_slash	5	practice_slash	27	stimuli_target_circlediamonds.svg	stimuli_distractor_diamondtriangles.svg	1	yes	53	1	1048
6.6.1	win	2022-12-26	22:47:28	22:51:24	230534	5acb69b70527ba0001c25872	804367565	1	practice_slash	5	advance_on_keypress_SLASH	28	stimuli_target_circlediamonds.svg	stimuli_distractor_diamondtriangles.svg	1	yes	57	0	398
6.6.1	win	2022-12-26	22:47:28	22:51:27	234486	5acb69b70527ba0001c25872	804367565	1	practice_slash	5	practice_slash	29	stimuli_distractor_trianglediamonds.svg	stimuli_distractor_trianglediamonds.svg	15	no	53	0	1923
6.6.1	win	2022-12-26	22:47:28	22:51:27	234486	5acb69b70527ba0001c25872	804367565	1	practice_slash	5	advance_on_keypress_SLASH	30	stimuli_distractor_trianglediamonds.svg	stimuli_distractor_trianglediamonds.svg	15	no	57	0	367
6.6.1	win	2022-12-26	22:47:28	22:51:30	237440	5acb69b70527ba0001c25872	804367565	1	practice_slash	5	practice_slash	31	stimuli_distractor_trianglediamonds.svg	stimuli_target_circlediamonds.svg	10	yes	53	1	946
6.6.1	win	2022-12-26	22:47:28	22:51:30	237440	5acb69b70527ba0001c25872	804367565	1	practice_slash	5	advance_on_keypress_SLASH	32	stimuli_distractor_trianglediamonds.svg	stimuli_target_circlediamonds.svg	10	yes	57	0	348
6.6.1	win	2022-12-26	22:47:28	22:51:58	264904	5acb69b70527ba0001c25872	804367565	1	main_slash	7	main_slash	1	stimuli_distractor_diamondtriangles.svg	stimuli_target_circlediamonds.svg	14	yes	53	1	697
6.6.1	win	2022-12-26	22:47:28	22:51:58	264904	5acb69b70527ba0001c25872	804367565	1	main_slash	7	advance_on_keypress_SLASH	2	stimuli_distractor_diamondtriangles.svg	stimuli_target_circlediamonds.svg	14	yes	57	0	1116
6.6.1	win	2022-12-26	22:47:28	22:52:00	267307	5acb69b70527ba0001c25872	804367565	1	main_slash	7	main_slash	3	stimuli_target_circlediamonds.svg	stimuli_distractor_diamondtriangles.svg	6	yes	53	1	649
6.6.1	win	2022-12-26	22:47:28	22:52:00	267307	5acb69b70527ba0001c25872	804367565	1	main_slash	7	advance_on_keypress_SLASH	4	stimuli_target_circlediamonds.svg	stimuli_distractor_diamondtriangles.svg	6	yes	57	0	566
6.6.1	win	2022-12-26	22:47:28	22:52:04	270507	5acb69b70527ba0001c25872	804367565	1	main_slash	7	main_slash	5	stimuli_distractor_diamondtriangles.svg	stimuli_distractor_diamondtriangles.svg	40	no	0	1	2000
6.6.1	win	2022-12-26	22:47:28	22:52:04	270507	5acb69b70527ba0001c25872	804367565	1	main_slash	7	advance_on_keypress_SLASH	6	stimuli_distractor_diamondtriangles.svg	stimuli_distractor_diamondtriangles.svg	40	no	57	0	431
6.6.1	win	2022-12-26	22:47:28	22:52:06	272967	5acb69b70527ba0001c25872	804367565	1	main_slash	7	main_slash	7	stimuli_target_diamondcircles.svg	stimuli_distractor_diamondtriangles.svg	23	yes	53	1	1389
6.6.1	win	2022-12-26	22:47:28	22:52:06	272967	5acb69b70527ba0001c25872	804367565	1	main_slash	7	advance_on_keypress_SLASH	8	stimuli_target_diamondcircles.svg	stimuli_distractor_diamondtriangles.svg	23	yes	57	0	592
6.6.1	win	2022-12-26	22:47:28	22:52:08	274944	5acb69b70527ba0001c25872	804367565	1	main_slash	7	main_slash	9	stimuli_distractor_trianglediamonds.svg	stimuli_target_squarediamonds.svg	12	yes	53	1	748
6.6.1	win	2022-12-26	22:47:28	22:52:08	274944	5acb69b70527ba0001c25872	804367565	1	main_slash	7	advance_on_keypress_SLASH	10	stimuli_distractor_trianglediamonds.svg	stimuli_target_squarediamonds.svg	12	yes	57	0	548
6.6.1	win	2022-12-26	22:47:28	22:52:10	277019	5acb69b70527ba0001c25872	804367565	1	main_slash	7	main_slash	11	stimuli_target_trianglecircles.svg	stimuli_distractor_diamondtriangles.svg	21	yes	53	1	880
6.6.1	win	2022-12-26	22:47:28	22:52:10	277019	5acb69b70527ba0001c25872	804367565	1	main_slash	7	advance_on_keypress_SLASH	12	stimuli_target_trianglecircles.svg	stimuli_distractor_diamondtriangles.svg	21	yes	57	0	765
6.6.1	win	2022-12-26	22:47:28	22:52:13	279620	5acb69b70527ba0001c25872	804367565	1	main_slash	7	main_slash	13	stimuli_distractor_diamondtriangles.svg	stimuli_target_diamondcircles.svg	31	yes	53	1	1196
6.6.1	win	2022-12-26	22:47:28	22:52:13	279620	5acb69b70527ba0001c25872	804367565	1	main_slash	7	advance_on_keypress_SLASH	14	stimuli_distractor_diamondtriangles.svg	stimuli_target_diamondcircles.svg	31	yes	57	0	812
6.6.1	win	2022-12-26	22:47:28	22:52:15	282201	5acb69b70527ba0001c25872	804367565	1	main_slash	7	main_slash	15	stimuli_distractor_diamondtriangles.svg	stimuli_target_circletriangles.svg	13	yes	53	1	1134
6.6.1	win	2022-12-26	22:47:28	22:52:15	282201	5acb69b70527ba0001c25872	804367565	1	main_slash	7	advance_on_keypress_SLASH	16	stimuli_distractor_diamondtriangles.svg	stimuli_target_circletriangles.svg	13	yes	57	0	1373
6.6.1	win	2022-12-26	22:47:28	22:52:18	285126	5acb69b70527ba0001c25872	804367565	1	main_slash	7	main_slash	17	stimuli_target_squarediamonds.svg	stimuli_distractor_trianglediamonds.svg	4	yes	53	1	908
6.6.1	win	2022-12-26	22:47:28	22:52:18	285126	5acb69b70527ba0001c25872	804367565	1	main_slash	7	advance_on_keypress_SLASH	18	stimuli_target_squarediamonds.svg	stimuli_distractor_trianglediamonds.svg	4	yes	57	0	1244
6.6.1	win	2022-12-26	22:47:28	22:52:21	287811	5acb69b70527ba0001c25872	804367565	1	main_slash	7	main_slash	19	stimuli_distractor_trianglediamonds.svg	stimuli_target_squaretriangles.svg	11	yes	53	1	804
6.6.1	win	2022-12-26	22:47:28	22:52:21	287811	5acb69b70527ba0001c25872	804367565	1	main_slash	7	advance_on_keypress_SLASH	20	stimuli_distractor_trianglediamonds.svg	stimuli_target_squaretriangles.svg	11	yes	57	0	740
6.6.1	win	2022-12-26	22:47:28	22:52:23	290301	5acb69b70527ba0001c25872	804367565	1	main_slash	7	main_slash	21	stimuli_target_trianglesquares.svg	stimuli_distractor_diamondtriangles.svg	22	yes	53	1	1117
6.6.1	win	2022-12-26	22:47:28	22:52:23	290301	5acb69b70527ba0001c25872	804367565	1	main_slash	7	advance_on_keypress_SLASH	22	stimuli_target_trianglesquares.svg	stimuli_distractor_diamondtriangles.svg	22	yes	57	0	867
6.6.1	win	2022-12-26	22:47:28	22:52:27	293806	5acb69b70527ba0001c25872	804367565	1	main_slash	7	main_slash	23	stimuli_distractor_trianglediamonds.svg	stimuli_distractor_diamondtriangles.svg	36	no	0	1	2000
6.6.1	win	2022-12-26	22:47:28	22:52:27	293806	5acb69b70527ba0001c25872	804367565	1	main_slash	7	advance_on_keypress_SLASH	24	stimuli_distractor_trianglediamonds.svg	stimuli_distractor_diamondtriangles.svg	36	no	57	0	849
6.6.1	win	2022-12-26	22:47:28	22:52:30	297290	5acb69b70527ba0001c25872	804367565	1	main_slash	7	main_slash	25	stimuli_target_diamondsquares.svg	stimuli_distractor_trianglediamonds.svg	20	yes	0	0	2000
6.6.1	win	2022-12-26	22:47:28	22:52:30	297290	5acb69b70527ba0001c25872	804367565	1	main_slash	7	advance_on_keypress_SLASH	26	stimuli_target_diamondsquares.svg	stimuli_distractor_trianglediamonds.svg	20	yes	57	0	519
6.6.1	win	2022-12-26	22:47:28	22:52:32	299334	5acb69b70527ba0001c25872	804367565	1	main_slash	7	main_slash	27	stimuli_target_circletriangles.svg	stimuli_distractor_trianglediamonds.svg	1	yes	53	1	884
6.6.1	win	2022-12-26	22:47:28	22:52:32	299334	5acb69b70527ba0001c25872	804367565	1	main_slash	7	advance_on_keypress_SLASH	28	stimuli_target_circletriangles.svg	stimuli_distractor_trianglediamonds.svg	1	yes	57	0	865
6.6.1	win	2022-12-26	22:47:28	22:52:35	301638	5acb69b70527ba0001c25872	804367565	1	main_slash	7	main_slash	29	stimuli_distractor_trianglediamonds.svg	stimuli_target_circlediamonds.svg	10	yes	53	1	805
6.6.1	win	2022-12-26	22:47:28	22:52:35	301638	5acb69b70527ba0001c25872	804367565	1	main_slash	7	advance_on_keypress_SLASH	30	stimuli_distractor_trianglediamonds.svg	stimuli_target_circlediamonds.svg	10	yes	57	0	816
6.6.1	win	2022-12-26	22:47:28	22:52:38	305085	5acb69b70527ba0001c25872	804367565	1	main_slash	7	main_slash	31	stimuli_distractor_trianglediamonds.svg	stimuli_target_diamondsquares.svg	28	yes	0	0	2000
6.6.1	win	2022-12-26	22:47:28	22:52:38	305085	5acb69b70527ba0001c25872	804367565	1	main_slash	7	advance_on_keypress_SLASH	32	stimuli_distractor_trianglediamonds.svg	stimuli_target_diamondsquares.svg	28	yes	57	0	507
6.6.1	win	2022-12-26	22:47:28	22:52:41	308223	5acb69b70527ba0001c25872	804367565	1	main_slash	7	main_slash	33	stimuli_distractor_diamondtriangles.svg	stimuli_distractor_trianglediamonds.svg	37	no	0	1	2000
6.6.1	win	2022-12-26	22:47:28	22:52:41	308223	5acb69b70527ba0001c25872	804367565	1	main_slash	7	advance_on_keypress_SLASH	34	stimuli_distractor_diamondtriangles.svg	stimuli_distractor_trianglediamonds.svg	37	no	57	0	381
6.6.1	win	2022-12-26	22:47:28	22:52:44	310786	5acb69b70527ba0001c25872	804367565	1	main_slash	7	main_slash	35	stimuli_distractor_trianglediamonds.svg	stimuli_distractor_trianglediamonds.svg	33	no	53	0	1546
6.6.1	win	2022-12-26	22:47:28	22:52:44	310786	5acb69b70527ba0001c25872	804367565	1	main_slash	7	advance_on_keypress_SLASH	36	stimuli_distractor_trianglediamonds.svg	stimuli_distractor_trianglediamonds.svg	33	no	57	0	729
6.6.1	win	2022-12-26	22:47:28	22:52:46	313305	5acb69b70527ba0001c25872	804367565	1	main_slash	7	main_slash	37	stimuli_target_trianglecircles.svg	stimuli_distractor_trianglediamonds.svg	17	yes	53	1	1154
6.6.1	win	2022-12-26	22:47:28	22:52:46	313305	5acb69b70527ba0001c25872	804367565	1	main_slash	7	advance_on_keypress_SLASH	38	stimuli_target_trianglecircles.svg	stimuli_distractor_trianglediamonds.svg	17	yes	57	0	1329
6.6.1	win	2022-12-26	22:47:28	22:52:50	316947	5acb69b70527ba0001c25872	804367565	1	main_slash	7	main_slash	39	stimuli_distractor_trianglediamonds.svg	stimuli_distractor_trianglediamonds.svg	34	no	53	0	1681
6.6.1	win	2022-12-26	22:47:28	22:52:50	316947	5acb69b70527ba0001c25872	804367565	1	main_slash	7	advance_on_keypress_SLASH	40	stimuli_distractor_trianglediamonds.svg	stimuli_distractor_trianglediamonds.svg	34	no	57	0	1112
6.6.1	win	2022-12-26	22:47:28	22:52:53	319617	5acb69b70527ba0001c25872	804367565	1	main_slash	7	main_slash	41	stimuli_target_squaretriangles.svg	stimuli_distractor_diamondtriangles.svg	7	yes	53	1	905
6.6.1	win	2022-12-26	22:47:28	22:52:53	319617	5acb69b70527ba0001c25872	804367565	1	main_slash	7	advance_on_keypress_SLASH	42	stimuli_target_squaretriangles.svg	stimuli_distractor_diamondtriangles.svg	7	yes	57	0	803
6.6.1	win	2022-12-26	22:47:28	22:52:55	321926	5acb69b70527ba0001c25872	804367565	1	main_slash	7	main_slash	43	stimuli_distractor_diamondtriangles.svg	stimuli_target_squaretriangles.svg	15	yes	53	1	883
6.6.1	win	2022-12-26	22:47:28	22:52:55	321926	5acb69b70527ba0001c25872	804367565	1	main_slash	7	advance_on_keypress_SLASH	44	stimuli_distractor_diamondtriangles.svg	stimuli_target_squaretriangles.svg	15	yes	57	0	974
6.6.1	win	2022-12-26	22:47:28	22:52:58	324551	5acb69b70527ba0001c25872	804367565	1	main_slash	7	main_slash	45	stimuli_distractor_trianglediamonds.svg	stimuli_target_diamondcircles.svg	27	yes	53	1	1024
6.6.1	win	2022-12-26	22:47:28	22:52:58	324551	5acb69b70527ba0001c25872	804367565	1	main_slash	7	advance_on_keypress_SLASH	46	stimuli_distractor_trianglediamonds.svg	stimuli_target_diamondcircles.svg	27	yes	57	0	866
6.6.1	win	2022-12-26	22:47:28	22:53:01	328049	5acb69b70527ba0001c25872	804367565	1	main_slash	7	main_slash	47	stimuli_distractor_diamondtriangles.svg	stimuli_distractor_diamondtriangles.svg	39	no	0	1	2000
6.6.1	win	2022-12-26	22:47:28	22:53:01	328049	5acb69b70527ba0001c25872	804367565	1	main_slash	7	advance_on_keypress_SLASH	48	stimuli_distractor_diamondtriangles.svg	stimuli_distractor_diamondtriangles.svg	39	no	57	0	418
6.6.1	win	2022-12-26	22:47:28	22:53:03	330401	5acb69b70527ba0001c25872	804367565	1	main_slash	7	main_slash	49	stimuli_distractor_diamondtriangles.svg	stimuli_target_trianglecircles.svg	29	yes	53	1	1302
6.6.1	win	2022-12-26	22:47:28	22:53:03	330401	5acb69b70527ba0001c25872	804367565	1	main_slash	7	advance_on_keypress_SLASH	50	stimuli_distractor_diamondtriangles.svg	stimuli_target_trianglecircles.svg	29	yes	57	0	1089
6.6.1	win	2022-12-26	22:47:28	22:53:06	333212	5acb69b70527ba0001c25872	804367565	1	main_slash	7	main_slash	51	stimuli_target_trianglesquares.svg	stimuli_distractor_trianglediamonds.svg	18	yes	53	1	1077
6.6.1	win	2022-12-26	22:47:28	22:53:06	333212	5acb69b70527ba0001c25872	804367565	1	main_slash	7	advance_on_keypress_SLASH	52	stimuli_target_trianglesquares.svg	stimuli_distractor_trianglediamonds.svg	18	yes	57	0	717
6.6.1	win	2022-12-26	22:47:28	22:53:10	336570	5acb69b70527ba0001c25872	804367565	1	main_slash	7	main_slash	53	stimuli_target_diamondsquares.svg	stimuli_distractor_diamondtriangles.svg	24	yes	0	0	2000
6.6.1	win	2022-12-26	22:47:28	22:53:10	336570	5acb69b70527ba0001c25872	804367565	1	main_slash	7	advance_on_keypress_SLASH	54	stimuli_target_diamondsquares.svg	stimuli_distractor_diamondtriangles.svg	24	yes	57	0	259
6.6.1	win	2022-12-26	22:47:28	22:53:11	338246	5acb69b70527ba0001c25872	804367565	1	main_slash	7	main_slash	55	stimuli_distractor_diamondtriangles.svg	stimuli_target_squarediamonds.svg	16	yes	53	1	769
6.6.1	win	2022-12-26	22:47:28	22:53:11	338246	5acb69b70527ba0001c25872	804367565	1	main_slash	7	advance_on_keypress_SLASH	56	stimuli_distractor_diamondtriangles.svg	stimuli_target_squarediamonds.svg	16	yes	57	0	565
6.6.1	win	2022-12-26	22:47:28	22:53:13	340339	5acb69b70527ba0001c25872	804367565	1	main_slash	7	main_slash	57	stimuli_distractor_trianglediamonds.svg	stimuli_target_trianglecircles.svg	25	yes	53	1	885
6.6.1	win	2022-12-26	22:47:28	22:53:13	340339	5acb69b70527ba0001c25872	804367565	1	main_slash	7	advance_on_keypress_SLASH	58	stimuli_distractor_trianglediamonds.svg	stimuli_target_trianglecircles.svg	25	yes	57	0	493
6.6.1	win	2022-12-26	22:47:28	22:53:16	343013	5acb69b70527ba0001c25872	804367565	1	main_slash	7	main_slash	59	stimuli_target_squaretriangles.svg	stimuli_distractor_trianglediamonds.svg	3	yes	53	1	1547
6.6.1	win	2022-12-26	22:47:28	22:53:16	343013	5acb69b70527ba0001c25872	804367565	1	main_slash	7	advance_on_keypress_SLASH	60	stimuli_target_squaretriangles.svg	stimuli_distractor_trianglediamonds.svg	3	yes	57	0	742
6.6.1	win	2022-12-26	22:47:28	22:53:19	346387	5acb69b70527ba0001c25872	804367565	1	main_slash	7	main_slash	61	stimuli_distractor_diamondtriangles.svg	stimuli_target_diamondsquares.svg	32	yes	0	0	2000
6.6.1	win	2022-12-26	22:47:28	22:53:19	346387	5acb69b70527ba0001c25872	804367565	1	main_slash	7	advance_on_keypress_SLASH	62	stimuli_distractor_diamondtriangles.svg	stimuli_target_diamondsquares.svg	32	yes	57	0	236
6.6.1	win	2022-12-26	22:47:28	22:53:21	348174	5acb69b70527ba0001c25872	804367565	1	main_slash	7	main_slash	63	stimuli_distractor_diamondtriangles.svg	stimuli_target_trianglesquares.svg	30	yes	53	1	903
6.6.1	win	2022-12-26	22:47:28	22:53:21	348174	5acb69b70527ba0001c25872	804367565	1	main_slash	7	advance_on_keypress_SLASH	64	stimuli_distractor_diamondtriangles.svg	stimuli_target_trianglesquares.svg	30	yes	57	0	492
6.6.1	win	2022-12-26	22:47:28	22:53:24	350865	5acb69b70527ba0001c25872	804367565	1	main_slash	7	main_slash	65	stimuli_distractor_trianglediamonds.svg	stimuli_distractor_diamondtriangles.svg	35	no	53	0	1570
6.6.1	win	2022-12-26	22:47:28	22:53:24	350865	5acb69b70527ba0001c25872	804367565	1	main_slash	7	advance_on_keypress_SLASH	66	stimuli_distractor_trianglediamonds.svg	stimuli_distractor_diamondtriangles.svg	35	no	57	0	583
6.6.1	win	2022-12-26	22:47:28	22:53:27	354081	5acb69b70527ba0001c25872	804367565	1	main_slash	7	main_slash	67	stimuli_target_diamondcircles.svg	stimuli_distractor_trianglediamonds.svg	19	yes	0	0	2000
6.6.1	win	2022-12-26	22:47:28	22:53:27	354081	5acb69b70527ba0001c25872	804367565	1	main_slash	7	advance_on_keypress_SLASH	68	stimuli_target_diamondcircles.svg	stimuli_distractor_trianglediamonds.svg	19	yes	57	0	189
6.6.1	win	2022-12-26	22:47:28	22:53:30	356911	5acb69b70527ba0001c25872	804367565	1	main_slash	7	main_slash	69	stimuli_distractor_trianglediamonds.svg	stimuli_target_circletriangles.svg	9	yes	0	0	2000
6.6.1	win	2022-12-26	22:47:28	22:53:30	356911	5acb69b70527ba0001c25872	804367565	1	main_slash	7	advance_on_keypress_SLASH	70	stimuli_distractor_trianglediamonds.svg	stimuli_target_circletriangles.svg	9	yes	57	0	2225
6.6.1	win	2022-12-26	22:47:28	22:53:35	361507	5acb69b70527ba0001c25872	804367565	1	main_slash	7	main_slash	71	stimuli_distractor_diamondtriangles.svg	stimuli_distractor_trianglediamonds.svg	38	no	53	0	1743
6.6.1	win	2022-12-26	22:47:28	22:53:35	361507	5acb69b70527ba0001c25872	804367565	1	main_slash	7	advance_on_keypress_SLASH	72	stimuli_distractor_diamondtriangles.svg	stimuli_distractor_trianglediamonds.svg	38	no	57	0	335
6.6.1	win	2022-12-26	22:47:28	22:53:36	363418	5acb69b70527ba0001c25872	804367565	1	main_slash	7	main_slash	73	stimuli_target_squarediamonds.svg	stimuli_distractor_diamondtriangles.svg	8	yes	53	1	937
6.6.1	win	2022-12-26	22:47:28	22:53:36	363418	5acb69b70527ba0001c25872	804367565	1	main_slash	7	advance_on_keypress_SLASH	74	stimuli_target_squarediamonds.svg	stimuli_distractor_diamondtriangles.svg	8	yes	57	0	576
6.6.1	win	2022-12-26	22:47:28	22:53:39	366292	5acb69b70527ba0001c25872	804367565	1	main_slash	7	main_slash	75	stimuli_target_circletriangles.svg	stimuli_distractor_diamondtriangles.svg	5	yes	53	1	1669
6.6.1	win	2022-12-26	22:47:28	22:53:39	366292	5acb69b70527ba0001c25872	804367565	1	main_slash	7	advance_on_keypress_SLASH	76	stimuli_target_circletriangles.svg	stimuli_distractor_diamondtriangles.svg	5	yes	57	0	414
6.6.1	win	2022-12-26	22:47:28	22:53:41	368275	5acb69b70527ba0001c25872	804367565	1	main_slash	7	main_slash	77	stimuli_target_circlediamonds.svg	stimuli_distractor_trianglediamonds.svg	2	yes	53	1	926
6.6.1	win	2022-12-26	22:47:28	22:53:41	368275	5acb69b70527ba0001c25872	804367565	1	main_slash	7	advance_on_keypress_SLASH	78	stimuli_target_circlediamonds.svg	stimuli_distractor_trianglediamonds.svg	2	yes	57	0	349
6.6.1	win	2022-12-26	22:47:28	22:53:44	370560	5acb69b70527ba0001c25872	804367565	1	main_slash	7	main_slash	79	stimuli_distractor_trianglediamonds.svg	stimuli_target_trianglesquares.svg	26	yes	53	1	1293
6.6.1	win	2022-12-26	22:47:28	22:53:44	370560	5acb69b70527ba0001c25872	804367565	1	main_slash	7	advance_on_keypress_SLASH	80	stimuli_distractor_trianglediamonds.svg	stimuli_target_trianglesquares.svg	26	yes	57	0	380
6.6.1	win	2022-12-26	22:47:28	22:53:47	373587	5acb69b70527ba0001c25872	804367565	1	main_slash	7	main_slash	81	stimuli_distractor_diamondtriangles.svg	stimuli_distractor_diamondtriangles.svg	39	no	0	1	2000
6.6.1	win	2022-12-26	22:47:28	22:53:47	373587	5acb69b70527ba0001c25872	804367565	1	main_slash	7	advance_on_keypress_SLASH	82	stimuli_distractor_diamondtriangles.svg	stimuli_distractor_diamondtriangles.svg	39	no	57	0	402
6.6.1	win	2022-12-26	22:47:28	22:53:48	375363	5acb69b70527ba0001c25872	804367565	1	main_slash	7	main_slash	83	stimuli_distractor_trianglediamonds.svg	stimuli_target_squaretriangles.svg	11	yes	53	1	728
6.6.1	win	2022-12-26	22:47:28	22:53:48	375363	5acb69b70527ba0001c25872	804367565	1	main_slash	7	advance_on_keypress_SLASH	84	stimuli_distractor_trianglediamonds.svg	stimuli_target_squaretriangles.svg	11	yes	57	0	401
6.6.1	win	2022-12-26	22:47:28	22:53:50	377418	5acb69b70527ba0001c25872	804367565	1	main_slash	7	main_slash	85	stimuli_distractor_trianglediamonds.svg	stimuli_target_trianglecircles.svg	25	yes	53	1	1014
6.6.1	win	2022-12-26	22:47:28	22:53:50	377418	5acb69b70527ba0001c25872	804367565	1	main_slash	7	advance_on_keypress_SLASH	86	stimuli_distractor_trianglediamonds.svg	stimuli_target_trianglecircles.svg	25	yes	57	0	465
6.6.1	win	2022-12-26	22:47:28	22:53:52	379298	5acb69b70527ba0001c25872	804367565	1	main_slash	7	main_slash	87	stimuli_distractor_trianglediamonds.svg	stimuli_target_squarediamonds.svg	12	yes	53	1	793
6.6.1	win	2022-12-26	22:47:28	22:53:52	379298	5acb69b70527ba0001c25872	804367565	1	main_slash	7	advance_on_keypress_SLASH	88	stimuli_distractor_trianglediamonds.svg	stimuli_target_squarediamonds.svg	12	yes	57	0	409
6.6.1	win	2022-12-26	22:47:28	22:53:54	381043	5acb69b70527ba0001c25872	804367565	1	main_slash	7	main_slash	89	stimuli_target_diamondsquares.svg	stimuli_distractor_diamondtriangles.svg	24	yes	53	1	697
6.6.1	win	2022-12-26	22:47:28	22:53:54	381043	5acb69b70527ba0001c25872	804367565	1	main_slash	7	advance_on_keypress_SLASH	90	stimuli_target_diamondsquares.svg	stimuli_distractor_diamondtriangles.svg	24	yes	57	0	427
6.6.1	win	2022-12-26	22:47:28	22:53:57	383573	5acb69b70527ba0001c25872	804367565	1	main_slash	7	main_slash	91	stimuli_target_circletriangles.svg	stimuli_distractor_trianglediamonds.svg	1	yes	53	1	1460
6.6.1	win	2022-12-26	22:47:28	22:53:57	383573	5acb69b70527ba0001c25872	804367565	1	main_slash	7	advance_on_keypress_SLASH	92	stimuli_target_circletriangles.svg	stimuli_distractor_trianglediamonds.svg	1	yes	57	0	304
6.6.1	win	2022-12-26	22:47:28	22:53:59	385664	5acb69b70527ba0001c25872	804367565	1	main_slash	7	main_slash	93	stimuli_target_trianglesquares.svg	stimuli_distractor_diamondtriangles.svg	22	yes	53	1	1148
6.6.1	win	2022-12-26	22:47:28	22:53:59	385664	5acb69b70527ba0001c25872	804367565	1	main_slash	7	advance_on_keypress_SLASH	94	stimuli_target_trianglesquares.svg	stimuli_distractor_diamondtriangles.svg	22	yes	57	0	294
6.6.1	win	2022-12-26	22:47:28	22:54:02	388598	5acb69b70527ba0001c25872	804367565	1	main_slash	7	main_slash	95	stimuli_distractor_trianglediamonds.svg	stimuli_distractor_diamondtriangles.svg	35	no	0	1	2000
6.6.1	win	2022-12-26	22:47:28	22:54:02	388598	5acb69b70527ba0001c25872	804367565	1	main_slash	7	advance_on_keypress_SLASH	96	stimuli_distractor_trianglediamonds.svg	stimuli_distractor_diamondtriangles.svg	35	no	57	0	471
6.6.1	win	2022-12-26	22:47:28	22:54:04	390629	5acb69b70527ba0001c25872	804367565	1	main_slash	7	main_slash	97	stimuli_distractor_trianglediamonds.svg	stimuli_target_diamondcircles.svg	27	yes	53	1	921
6.6.1	win	2022-12-26	22:47:28	22:54:04	390629	5acb69b70527ba0001c25872	804367565	1	main_slash	7	advance_on_keypress_SLASH	98	stimuli_distractor_trianglediamonds.svg	stimuli_target_diamondcircles.svg	27	yes	57	0	343
6.6.1	win	2022-12-26	22:47:28	22:54:06	392763	5acb69b70527ba0001c25872	804367565	1	main_slash	7	main_slash	99	stimuli_target_circletriangles.svg	stimuli_distractor_diamondtriangles.svg	5	yes	53	1	1152
6.6.1	win	2022-12-26	22:47:28	22:54:06	392763	5acb69b70527ba0001c25872	804367565	1	main_slash	7	advance_on_keypress_SLASH	100	stimuli_target_circletriangles.svg	stimuli_distractor_diamondtriangles.svg	5	yes	57	0	303
6.6.1	win	2022-12-26	22:47:28	22:54:08	394642	5acb69b70527ba0001c25872	804367565	1	main_slash	7	main_slash	101	stimuli_target_squarediamonds.svg	stimuli_distractor_diamondtriangles.svg	8	yes	53	1	948
6.6.1	win	2022-12-26	22:47:28	22:54:08	394642	5acb69b70527ba0001c25872	804367565	1	main_slash	7	advance_on_keypress_SLASH	102	stimuli_target_squarediamonds.svg	stimuli_distractor_diamondtriangles.svg	8	yes	57	0	256
6.6.1	win	2022-12-26	22:47:28	22:54:09	396330	5acb69b70527ba0001c25872	804367565	1	main_slash	7	main_slash	103	stimuli_target_diamondcircles.svg	stimuli_distractor_trianglediamonds.svg	19	yes	53	1	805
6.6.1	win	2022-12-26	22:47:28	22:54:09	396330	5acb69b70527ba0001c25872	804367565	1	main_slash	7	advance_on_keypress_SLASH	104	stimuli_target_diamondcircles.svg	stimuli_distractor_trianglediamonds.svg	19	yes	57	0	362
6.6.1	win	2022-12-26	22:47:28	22:54:12	398610	5acb69b70527ba0001c25872	804367565	1	main_slash	7	main_slash	105	stimuli_distractor_trianglediamonds.svg	stimuli_target_diamondsquares.svg	28	yes	53	1	1266
6.6.1	win	2022-12-26	22:47:28	22:54:12	398610	5acb69b70527ba0001c25872	804367565	1	main_slash	7	advance_on_keypress_SLASH	106	stimuli_distractor_trianglediamonds.svg	stimuli_target_diamondsquares.svg	28	yes	57	0	295
6.6.1	win	2022-12-26	22:47:28	22:54:13	400352	5acb69b70527ba0001c25872	804367565	1	main_slash	7	main_slash	107	stimuli_distractor_diamondtriangles.svg	stimuli_target_squaretriangles.svg	15	yes	53	1	794
6.6.1	win	2022-12-26	22:47:28	22:54:13	400352	5acb69b70527ba0001c25872	804367565	1	main_slash	7	advance_on_keypress_SLASH	108	stimuli_distractor_diamondtriangles.svg	stimuli_target_squaretriangles.svg	15	yes	57	0	303
6.6.1	win	2022-12-26	22:47:28	22:54:15	401987	5acb69b70527ba0001c25872	804367565	1	main_slash	7	main_slash	109	stimuli_distractor_diamondtriangles.svg	stimuli_target_squarediamonds.svg	16	yes	53	1	680
6.6.1	win	2022-12-26	22:47:28	22:54:15	401987	5acb69b70527ba0001c25872	804367565	1	main_slash	7	advance_on_keypress_SLASH	110	stimuli_distractor_diamondtriangles.svg	stimuli_target_squarediamonds.svg	16	yes	57	0	387
6.6.1	win	2022-12-26	22:47:28	22:54:17	403796	5acb69b70527ba0001c25872	804367565	1	main_slash	7	main_slash	111	stimuli_distractor_diamondtriangles.svg	stimuli_distractor_trianglediamonds.svg	38	no	53	0	790
6.6.1	win	2022-12-26	22:47:28	22:54:17	403796	5acb69b70527ba0001c25872	804367565	1	main_slash	7	advance_on_keypress_SLASH	112	stimuli_distractor_diamondtriangles.svg	stimuli_distractor_trianglediamonds.svg	38	no	57	0	315
6.6.1	win	2022-12-26	22:47:28	22:54:20	406749	5acb69b70527ba0001c25872	804367565	1	main_slash	7	main_slash	113	stimuli_target_squaretriangles.svg	stimuli_distractor_trianglediamonds.svg	3	yes	0	0	2000
6.6.1	win	2022-12-26	22:47:28	22:54:20	406749	5acb69b70527ba0001c25872	804367565	1	main_slash	7	advance_on_keypress_SLASH	114	stimuli_target_squaretriangles.svg	stimuli_distractor_trianglediamonds.svg	3	yes	57	0	1548
6.6.1	win	2022-12-26	22:47:28	22:54:23	409584	5acb69b70527ba0001c25872	804367565	1	main_slash	7	main_slash	115	stimuli_distractor_diamondtriangles.svg	stimuli_target_diamondsquares.svg	32	yes	53	1	659
6.6.1	win	2022-12-26	22:47:28	22:54:23	409584	5acb69b70527ba0001c25872	804367565	1	main_slash	7	advance_on_keypress_SLASH	116	stimuli_distractor_diamondtriangles.svg	stimuli_target_diamondsquares.svg	32	yes	57	0	322
6.6.1	win	2022-12-26	22:47:28	22:54:25	411697	5acb69b70527ba0001c25872	804367565	1	main_slash	7	main_slash	117	stimuli_distractor_diamondtriangles.svg	stimuli_target_trianglecircles.svg	29	yes	53	1	1150
6.6.1	win	2022-12-26	22:47:28	22:54:25	411697	5acb69b70527ba0001c25872	804367565	1	main_slash	7	advance_on_keypress_SLASH	118	stimuli_distractor_diamondtriangles.svg	stimuli_target_trianglecircles.svg	29	yes	57	0	267
6.6.1	win	2022-12-26	22:47:28	22:54:28	414607	5acb69b70527ba0001c25872	804367565	1	main_slash	7	main_slash	119	stimuli_distractor_trianglediamonds.svg	stimuli_distractor_trianglediamonds.svg	34	no	0	1	2000
6.6.1	win	2022-12-26	22:47:28	22:54:28	414607	5acb69b70527ba0001c25872	804367565	1	main_slash	7	advance_on_keypress_SLASH	120	stimuli_distractor_trianglediamonds.svg	stimuli_distractor_trianglediamonds.svg	34	no	57	0	390
6.6.1	win	2022-12-26	22:47:28	22:54:29	416167	5acb69b70527ba0001c25872	804367565	1	main_slash	7	main_slash	121	stimuli_target_squaretriangles.svg	stimuli_distractor_diamondtriangles.svg	7	yes	53	1	512
6.6.1	win	2022-12-26	22:47:28	22:54:29	416167	5acb69b70527ba0001c25872	804367565	1	main_slash	7	advance_on_keypress_SLASH	122	stimuli_target_squaretriangles.svg	stimuli_distractor_diamondtriangles.svg	7	yes	57	0	237
6.6.1	win	2022-12-26	22:47:28	22:54:31	418169	5acb69b70527ba0001c25872	804367565	1	main_slash	7	main_slash	123	stimuli_distractor_trianglediamonds.svg	stimuli_distractor_trianglediamonds.svg	33	no	53	0	1126
6.6.1	win	2022-12-26	22:47:28	22:54:31	418169	5acb69b70527ba0001c25872	804367565	1	main_slash	7	advance_on_keypress_SLASH	124	stimuli_distractor_trianglediamonds.svg	stimuli_distractor_trianglediamonds.svg	33	no	57	0	206
6.6.1	win	2022-12-26	22:47:28	22:54:33	419963	5acb69b70527ba0001c25872	804367565	1	main_slash	7	main_slash	125	stimuli_distractor_diamondtriangles.svg	stimuli_target_circletriangles.svg	13	yes	53	1	953
6.6.1	win	2022-12-26	22:47:28	22:54:33	419963	5acb69b70527ba0001c25872	804367565	1	main_slash	7	advance_on_keypress_SLASH	126	stimuli_distractor_diamondtriangles.svg	stimuli_target_circletriangles.svg	13	yes	57	0	198
6.6.1	win	2022-12-26	22:47:28	22:54:35	421634	5acb69b70527ba0001c25872	804367565	1	main_slash	7	main_slash	127	stimuli_distractor_diamondtriangles.svg	stimuli_target_circlediamonds.svg	14	yes	53	1	831
6.6.1	win	2022-12-26	22:47:28	22:54:35	421634	5acb69b70527ba0001c25872	804367565	1	main_slash	7	advance_on_keypress_SLASH	128	stimuli_distractor_diamondtriangles.svg	stimuli_target_circlediamonds.svg	14	yes	57	0	144
6.6.1	win	2022-12-26	22:47:28	22:54:37	424419	5acb69b70527ba0001c25872	804367565	1	main_slash	7	main_slash	129	stimuli_distractor_trianglediamonds.svg	stimuli_distractor_diamondtriangles.svg	36	no	0	1	2000
6.6.1	win	2022-12-26	22:47:28	22:54:37	424419	5acb69b70527ba0001c25872	804367565	1	main_slash	7	advance_on_keypress_SLASH	130	stimuli_distractor_trianglediamonds.svg	stimuli_distractor_diamondtriangles.svg	36	no	57	0	716
6.6.1	win	2022-12-26	22:47:28	22:54:39	426249	5acb69b70527ba0001c25872	804367565	1	main_slash	7	main_slash	131	stimuli_target_squarediamonds.svg	stimuli_distractor_trianglediamonds.svg	4	yes	53	1	471
6.6.1	win	2022-12-26	22:47:28	22:54:39	426249	5acb69b70527ba0001c25872	804367565	1	main_slash	7	advance_on_keypress_SLASH	132	stimuli_target_squarediamonds.svg	stimuli_distractor_trianglediamonds.svg	4	yes	57	0	237
6.6.1	win	2022-12-26	22:47:28	22:54:41	427850	5acb69b70527ba0001c25872	804367565	1	main_slash	7	main_slash	133	stimuli_target_circlediamonds.svg	stimuli_distractor_trianglediamonds.svg	2	yes	53	1	725
6.6.1	win	2022-12-26	22:47:28	22:54:41	427850	5acb69b70527ba0001c25872	804367565	1	main_slash	7	advance_on_keypress_SLASH	134	stimuli_target_circlediamonds.svg	stimuli_distractor_trianglediamonds.svg	2	yes	57	0	192
6.6.1	win	2022-12-26	22:47:28	22:54:44	430673	5acb69b70527ba0001c25872	804367565	1	main_slash	7	main_slash	135	stimuli_target_diamondsquares.svg	stimuli_distractor_trianglediamonds.svg	20	yes	0	0	2000
6.6.1	win	2022-12-26	22:47:28	22:54:44	430673	5acb69b70527ba0001c25872	804367565	1	main_slash	7	advance_on_keypress_SLASH	136	stimuli_target_diamondsquares.svg	stimuli_distractor_trianglediamonds.svg	20	yes	57	0	713
6.6.1	win	2022-12-26	22:47:28	22:54:46	432835	5acb69b70527ba0001c25872	804367565	1	main_slash	7	main_slash	137	stimuli_target_trianglesquares.svg	stimuli_distractor_trianglediamonds.svg	18	yes	53	1	817
6.6.1	win	2022-12-26	22:47:28	22:54:46	432835	5acb69b70527ba0001c25872	804367565	1	main_slash	7	advance_on_keypress_SLASH	138	stimuli_target_trianglesquares.svg	stimuli_distractor_trianglediamonds.svg	18	yes	57	0	217
6.6.1	win	2022-12-26	22:47:28	22:54:49	435688	5acb69b70527ba0001c25872	804367565	1	main_slash	7	main_slash	139	stimuli_distractor_trianglediamonds.svg	stimuli_target_trianglesquares.svg	26	yes	0	0	2000
6.6.1	win	2022-12-26	22:47:28	22:54:49	435688	5acb69b70527ba0001c25872	804367565	1	main_slash	7	advance_on_keypress_SLASH	140	stimuli_distractor_trianglediamonds.svg	stimuli_target_trianglesquares.svg	26	yes	57	0	984
6.6.1	win	2022-12-26	22:47:28	22:54:51	438072	5acb69b70527ba0001c25872	804367565	1	main_slash	7	main_slash	141	stimuli_distractor_diamondtriangles.svg	stimuli_target_diamondcircles.svg	31	yes	53	1	772
6.6.1	win	2022-12-26	22:47:28	22:54:51	438072	5acb69b70527ba0001c25872	804367565	1	main_slash	7	advance_on_keypress_SLASH	142	stimuli_distractor_diamondtriangles.svg	stimuli_target_diamondcircles.svg	31	yes	57	0	263
6.6.1	win	2022-12-26	22:47:28	22:54:53	439683	5acb69b70527ba0001c25872	804367565	1	main_slash	7	main_slash	143	stimuli_distractor_trianglediamonds.svg	stimuli_target_circletriangles.svg	9	yes	53	1	717
6.6.1	win	2022-12-26	22:47:28	22:54:53	439683	5acb69b70527ba0001c25872	804367565	1	main_slash	7	advance_on_keypress_SLASH	144	stimuli_distractor_trianglediamonds.svg	stimuli_target_circletriangles.svg	9	yes	57	0	182
6.6.1	win	2022-12-26	22:47:28	22:54:56	442509	5acb69b70527ba0001c25872	804367565	1	main_slash	7	main_slash	145	stimuli_target_trianglecircles.svg	stimuli_distractor_trianglediamonds.svg	17	yes	0	0	2000
6.6.1	win	2022-12-26	22:47:28	22:54:56	442509	5acb69b70527ba0001c25872	804367565	1	main_slash	7	advance_on_keypress_SLASH	146	stimuli_target_trianglecircles.svg	stimuli_distractor_trianglediamonds.svg	17	yes	57	0	780
6.6.1	win	2022-12-26	22:47:28	22:54:59	445915	5acb69b70527ba0001c25872	804367565	1	main_slash	7	main_slash	147	stimuli_distractor_diamondtriangles.svg	stimuli_distractor_trianglediamonds.svg	37	no	0	1	2000
6.6.1	win	2022-12-26	22:47:28	22:54:59	445915	5acb69b70527ba0001c25872	804367565	1	main_slash	7	advance_on_keypress_SLASH	148	stimuli_distractor_diamondtriangles.svg	stimuli_distractor_trianglediamonds.svg	37	no	57	0	338
6.6.1	win	2022-12-26	22:47:28	22:55:01	447634	5acb69b70527ba0001c25872	804367565	1	main_slash	7	main_slash	149	stimuli_distractor_diamondtriangles.svg	stimuli_target_trianglesquares.svg	30	yes	53	1	747
6.6.1	win	2022-12-26	22:47:28	22:55:01	447634	5acb69b70527ba0001c25872	804367565	1	main_slash	7	advance_on_keypress_SLASH	150	stimuli_distractor_diamondtriangles.svg	stimuli_target_trianglesquares.svg	30	yes	57	0	187
6.6.1	win	2022-12-26	22:47:28	22:55:03	449900	5acb69b70527ba0001c25872	804367565	1	main_slash	7	main_slash	151	stimuli_target_circlediamonds.svg	stimuli_distractor_diamondtriangles.svg	6	yes	53	1	1444
6.6.1	win	2022-12-26	22:47:28	22:55:03	449900	5acb69b70527ba0001c25872	804367565	1	main_slash	7	advance_on_keypress_SLASH	152	stimuli_target_circlediamonds.svg	stimuli_distractor_diamondtriangles.svg	6	yes	57	0	228
6.6.1	win	2022-12-26	22:47:28	22:55:06	452765	5acb69b70527ba0001c25872	804367565	1	main_slash	7	main_slash	153	stimuli_target_diamondcircles.svg	stimuli_distractor_diamondtriangles.svg	23	yes	0	0	2000
6.6.1	win	2022-12-26	22:47:28	22:55:06	452765	5acb69b70527ba0001c25872	804367565	1	main_slash	7	advance_on_keypress_SLASH	154	stimuli_target_diamondcircles.svg	stimuli_distractor_diamondtriangles.svg	23	yes	57	0	868
6.6.1	win	2022-12-26	22:47:28	22:55:08	454721	5acb69b70527ba0001c25872	804367565	1	main_slash	7	main_slash	155	stimuli_distractor_trianglediamonds.svg	stimuli_target_circlediamonds.svg	10	yes	53	1	447
6.6.1	win	2022-12-26	22:47:28	22:55:08	454721	5acb69b70527ba0001c25872	804367565	1	main_slash	7	advance_on_keypress_SLASH	156	stimuli_distractor_trianglediamonds.svg	stimuli_target_circlediamonds.svg	10	yes	57	0	177
6.6.1	win	2022-12-26	22:47:28	22:55:09	456071	5acb69b70527ba0001c25872	804367565	1	main_slash	7	main_slash	157	stimuli_target_trianglecircles.svg	stimuli_distractor_diamondtriangles.svg	21	yes	53	1	542
6.6.1	win	2022-12-26	22:47:28	22:55:09	456071	5acb69b70527ba0001c25872	804367565	1	main_slash	7	advance_on_keypress_SLASH	158	stimuli_target_trianglecircles.svg	stimuli_distractor_diamondtriangles.svg	21	yes	57	0	183
6.6.1	win	2022-12-26	22:47:28	22:55:12	458893	5acb69b70527ba0001c25872	804367565	1	main_slash	7	main_slash	159	stimuli_distractor_diamondtriangles.svg	stimuli_distractor_diamondtriangles.svg	40	no	0	1	2000
6.6.1	win	2022-12-26	22:47:28	22:55:12	458893	5acb69b70527ba0001c25872	804367565	1	main_slash	7	advance_on_keypress_SLASH	160	stimuli_distractor_diamondtriangles.svg	stimuli_distractor_diamondtriangles.svg	40	no	57	0	372
6.6.1	win	2022-12-26	22:47:28	22:55:43	489966	5acb69b70527ba0001c25872	804367565	1	practice_z	9	practice_z	1	stimuli_target_circlediamonds.svg	stimuli_distractor_trianglediamonds.svg	4	yes	44	1	617
6.6.1	win	2022-12-26	22:47:28	22:55:43	489966	5acb69b70527ba0001c25872	804367565	1	practice_z	9	advance_on_keypress_ZEE	2	stimuli_target_circlediamonds.svg	stimuli_distractor_trianglediamonds.svg	4	yes	57	0	669
6.6.1	win	2022-12-26	22:47:28	22:55:46	492829	5acb69b70527ba0001c25872	804367565	1	practice_z	9	practice_z	3	stimuli_target_squarediamonds.svg	stimuli_distractor_diamondtriangles.svg	2	yes	44	1	556
6.6.1	win	2022-12-26	22:47:28	22:55:46	492829	5acb69b70527ba0001c25872	804367565	1	practice_z	9	advance_on_keypress_ZEE	4	stimuli_target_squarediamonds.svg	stimuli_distractor_diamondtriangles.svg	2	yes	57	0	264
6.6.1	win	2022-12-26	22:47:28	22:55:48	495390	5acb69b70527ba0001c25872	804367565	1	practice_z	9	practice_z	5	stimuli_distractor_diamondtriangles.svg	stimuli_target_circletriangles.svg	7	yes	44	1	670
6.6.1	win	2022-12-26	22:47:28	22:55:48	495390	5acb69b70527ba0001c25872	804367565	1	practice_z	9	advance_on_keypress_ZEE	6	stimuli_distractor_diamondtriangles.svg	stimuli_target_circletriangles.svg	7	yes	57	0	208
6.6.1	win	2022-12-26	22:47:28	22:55:51	497925	5acb69b70527ba0001c25872	804367565	1	practice_z	9	practice_z	7	stimuli_target_squarediamonds.svg	stimuli_distractor_trianglediamonds.svg	5	yes	44	1	685
6.6.1	win	2022-12-26	22:47:28	22:55:51	497925	5acb69b70527ba0001c25872	804367565	1	practice_z	9	advance_on_keypress_ZEE	8	stimuli_target_squarediamonds.svg	stimuli_distractor_trianglediamonds.svg	5	yes	57	0	213
6.6.1	win	2022-12-26	22:47:28	22:55:54	500745	5acb69b70527ba0001c25872	804367565	1	practice_z	9	practice_z	9	stimuli_distractor_diamondtriangles.svg	stimuli_target_diamondcircles.svg	8	yes	44	1	965
6.6.1	win	2022-12-26	22:47:28	22:55:54	500745	5acb69b70527ba0001c25872	804367565	1	practice_z	9	advance_on_keypress_ZEE	10	stimuli_distractor_diamondtriangles.svg	stimuli_target_diamondcircles.svg	8	yes	57	0	41
6.6.1	win	2022-12-26	22:47:28	22:55:56	503302	5acb69b70527ba0001c25872	804367565	1	practice_z	9	practice_z	11	stimuli_distractor_trianglediamonds.svg	stimuli_target_squarediamonds.svg	11	yes	44	1	845
6.6.1	win	2022-12-26	22:47:28	22:55:56	503302	5acb69b70527ba0001c25872	804367565	1	practice_z	9	advance_on_keypress_ZEE	12	stimuli_distractor_trianglediamonds.svg	stimuli_target_squarediamonds.svg	11	yes	57	0	348
6.6.1	win	2022-12-26	22:47:28	22:55:59	506086	5acb69b70527ba0001c25872	804367565	1	practice_z	9	practice_z	13	stimuli_target_diamondsquares.svg	stimuli_distractor_trianglediamonds.svg	6	yes	44	1	803
6.6.1	win	2022-12-26	22:47:28	22:55:59	506086	5acb69b70527ba0001c25872	804367565	1	practice_z	9	advance_on_keypress_ZEE	14	stimuli_target_diamondsquares.svg	stimuli_distractor_trianglediamonds.svg	6	yes	57	0	296
6.6.1	win	2022-12-26	22:47:28	22:56:02	509143	5acb69b70527ba0001c25872	804367565	1	practice_z	9	practice_z	15	stimuli_target_diamondsquares.svg	stimuli_distractor_diamondtriangles.svg	3	yes	44	1	1131
6.6.1	win	2022-12-26	22:47:28	22:56:02	509143	5acb69b70527ba0001c25872	804367565	1	practice_z	9	advance_on_keypress_ZEE	16	stimuli_target_diamondsquares.svg	stimuli_distractor_diamondtriangles.svg	3	yes	57	0	373
6.6.1	win	2022-12-26	22:47:28	22:56:06	513169	5acb69b70527ba0001c25872	804367565	1	practice_z	9	practice_z	17	stimuli_distractor_trianglediamonds.svg	stimuli_distractor_diamondtriangles.svg	16	no	0	1	2000
6.6.1	win	2022-12-26	22:47:28	22:56:06	513169	5acb69b70527ba0001c25872	804367565	1	practice_z	9	advance_on_keypress_ZEE	18	stimuli_distractor_trianglediamonds.svg	stimuli_distractor_diamondtriangles.svg	16	no	57	0	413
6.6.1	win	2022-12-26	22:47:28	22:56:10	517222	5acb69b70527ba0001c25872	804367565	1	practice_z	9	practice_z	19	stimuli_distractor_diamondtriangles.svg	stimuli_distractor_diamondtriangles.svg	13	no	0	1	2000
6.6.1	win	2022-12-26	22:47:28	22:56:10	517222	5acb69b70527ba0001c25872	804367565	1	practice_z	9	advance_on_keypress_ZEE	20	stimuli_distractor_diamondtriangles.svg	stimuli_distractor_diamondtriangles.svg	13	no	57	0	316
6.6.1	win	2022-12-26	22:47:28	22:56:13	520025	5acb69b70527ba0001c25872	804367565	1	practice_z	9	practice_z	21	stimuli_distractor_trianglediamonds.svg	stimuli_target_diamondcircles.svg	12	yes	44	1	836
6.6.1	win	2022-12-26	22:47:28	22:56:13	520025	5acb69b70527ba0001c25872	804367565	1	practice_z	9	advance_on_keypress_ZEE	22	stimuli_distractor_trianglediamonds.svg	stimuli_target_diamondcircles.svg	12	yes	57	0	262
6.6.1	win	2022-12-26	22:47:28	22:56:16	522670	5acb69b70527ba0001c25872	804367565	1	practice_z	9	practice_z	23	stimuli_distractor_diamondtriangles.svg	stimuli_target_trianglecircles.svg	9	yes	44	1	746
6.6.1	win	2022-12-26	22:47:28	22:56:16	522670	5acb69b70527ba0001c25872	804367565	1	practice_z	9	advance_on_keypress_ZEE	24	stimuli_distractor_diamondtriangles.svg	stimuli_target_trianglecircles.svg	9	yes	57	0	265
6.6.1	win	2022-12-26	22:47:28	22:56:20	526568	5acb69b70527ba0001c25872	804367565	1	practice_z	9	practice_z	25	stimuli_distractor_trianglediamonds.svg	stimuli_distractor_trianglediamonds.svg	15	no	0	1	2000
6.6.1	win	2022-12-26	22:47:28	22:56:20	526568	5acb69b70527ba0001c25872	804367565	1	practice_z	9	advance_on_keypress_ZEE	26	stimuli_distractor_trianglediamonds.svg	stimuli_distractor_trianglediamonds.svg	15	no	57	0	296
6.6.1	win	2022-12-26	22:47:28	22:56:22	529329	5acb69b70527ba0001c25872	804367565	1	practice_z	9	practice_z	27	stimuli_target_circlediamonds.svg	stimuli_distractor_diamondtriangles.svg	1	yes	44	1	838
6.6.1	win	2022-12-26	22:47:28	22:56:22	529329	5acb69b70527ba0001c25872	804367565	1	practice_z	9	advance_on_keypress_ZEE	28	stimuli_target_circlediamonds.svg	stimuli_distractor_diamondtriangles.svg	1	yes	57	0	336
6.6.1	win	2022-12-26	22:47:28	22:56:25	531893	5acb69b70527ba0001c25872	804367565	1	practice_z	9	practice_z	29	stimuli_distractor_trianglediamonds.svg	stimuli_target_circlediamonds.svg	10	yes	44	1	600
6.6.1	win	2022-12-26	22:47:28	22:56:25	531893	5acb69b70527ba0001c25872	804367565	1	practice_z	9	advance_on_keypress_ZEE	30	stimuli_distractor_trianglediamonds.svg	stimuli_target_circlediamonds.svg	10	yes	57	0	264
6.6.1	win	2022-12-26	22:47:28	22:56:29	535820	5acb69b70527ba0001c25872	804367565	1	practice_z	9	practice_z	31	stimuli_distractor_diamondtriangles.svg	stimuli_distractor_trianglediamonds.svg	14	no	0	1	2000
6.6.1	win	2022-12-26	22:47:28	22:56:29	535820	5acb69b70527ba0001c25872	804367565	1	practice_z	9	advance_on_keypress_ZEE	32	stimuli_distractor_diamondtriangles.svg	stimuli_distractor_trianglediamonds.svg	14	no	57	0	347
6.6.1	win	2022-12-26	22:47:28	22:56:54	560657	5acb69b70527ba0001c25872	804367565	1	main_z	11	main_z	1	stimuli_distractor_diamondtriangles.svg	stimuli_target_squaretriangles.svg	15	yes	44	1	891
6.6.1	win	2022-12-26	22:47:28	22:56:54	560657	5acb69b70527ba0001c25872	804367565	1	main_z	11	advance_on_keypress_ZEE	2	stimuli_distractor_diamondtriangles.svg	stimuli_target_squaretriangles.svg	15	yes	57	0	595
6.6.1	win	2022-12-26	22:47:28	22:56:56	562592	5acb69b70527ba0001c25872	804367565	1	main_z	11	main_z	3	stimuli_target_squarediamonds.svg	stimuli_distractor_trianglediamonds.svg	4	yes	44	1	708
6.6.1	win	2022-12-26	22:47:28	22:56:56	562592	5acb69b70527ba0001c25872	804367565	1	main_z	11	advance_on_keypress_ZEE	4	stimuli_target_squarediamonds.svg	stimuli_distractor_trianglediamonds.svg	4	yes	57	0	402
6.6.1	win	2022-12-26	22:47:28	22:56:57	564271	5acb69b70527ba0001c25872	804367565	1	main_z	11	main_z	5	stimuli_distractor_diamondtriangles.svg	stimuli_target_circlediamonds.svg	14	yes	44	1	633
6.6.1	win	2022-12-26	22:47:28	22:56:57	564271	5acb69b70527ba0001c25872	804367565	1	main_z	11	advance_on_keypress_ZEE	6	stimuli_distractor_diamondtriangles.svg	stimuli_target_circlediamonds.svg	14	yes	57	0	226
6.6.1	win	2022-12-26	22:47:28	22:56:59	565792	5acb69b70527ba0001c25872	804367565	1	main_z	11	main_z	7	stimuli_target_circletriangles.svg	stimuli_distractor_diamondtriangles.svg	5	yes	44	1	667
6.6.1	win	2022-12-26	22:47:28	22:56:59	565792	5acb69b70527ba0001c25872	804367565	1	main_z	11	advance_on_keypress_ZEE	8	stimuli_target_circletriangles.svg	stimuli_distractor_diamondtriangles.svg	5	yes	57	0	164
6.6.1	win	2022-12-26	22:47:28	22:57:02	568586	5acb69b70527ba0001c25872	804367565	1	main_z	11	main_z	9	stimuli_distractor_diamondtriangles.svg	stimuli_distractor_trianglediamonds.svg	37	no	0	1	2000
6.6.1	win	2022-12-26	22:47:28	22:57:02	568586	5acb69b70527ba0001c25872	804367565	1	main_z	11	advance_on_keypress_ZEE	10	stimuli_distractor_diamondtriangles.svg	stimuli_distractor_trianglediamonds.svg	37	no	57	0	861
6.6.1	win	2022-12-26	22:47:28	22:57:05	572084	5acb69b70527ba0001c25872	804367565	1	main_z	11	main_z	11	stimuli_target_diamondsquares.svg	stimuli_distractor_diamondtriangles.svg	24	yes	0	0	2000
6.6.1	win	2022-12-26	22:47:28	22:57:05	572084	5acb69b70527ba0001c25872	804367565	1	main_z	11	advance_on_keypress_ZEE	12	stimuli_target_diamondsquares.svg	stimuli_distractor_diamondtriangles.svg	24	yes	57	0	260
6.6.1	win	2022-12-26	22:47:28	22:57:08	574977	5acb69b70527ba0001c25872	804367565	1	main_z	11	main_z	13	stimuli_distractor_trianglediamonds.svg	stimuli_distractor_trianglediamonds.svg	34	no	0	1	2000
6.6.1	win	2022-12-26	22:47:28	22:57:08	574977	5acb69b70527ba0001c25872	804367565	1	main_z	11	advance_on_keypress_ZEE	14	stimuli_distractor_trianglediamonds.svg	stimuli_distractor_trianglediamonds.svg	34	no	57	0	273
6.6.1	win	2022-12-26	22:47:28	22:57:11	577895	5acb69b70527ba0001c25872	804367565	1	main_z	11	main_z	15	stimuli_distractor_diamondtriangles.svg	stimuli_distractor_diamondtriangles.svg	40	no	0	1	2000
6.6.1	win	2022-12-26	22:47:28	22:57:11	577895	5acb69b70527ba0001c25872	804367565	1	main_z	11	advance_on_keypress_ZEE	16	stimuli_distractor_diamondtriangles.svg	stimuli_distractor_diamondtriangles.svg	40	no	57	0	405
6.6.1	win	2022-12-26	22:47:28	22:57:13	579502	5acb69b70527ba0001c25872	804367565	1	main_z	11	main_z	17	stimuli_target_circlediamonds.svg	stimuli_distractor_diamondtriangles.svg	6	yes	44	1	565
6.6.1	win	2022-12-26	22:47:28	22:57:13	579502	5acb69b70527ba0001c25872	804367565	1	main_z	11	advance_on_keypress_ZEE	18	stimuli_target_circlediamonds.svg	stimuli_distractor_diamondtriangles.svg	6	yes	57	0	240
6.6.1	win	2022-12-26	22:47:28	22:57:15	582371	5acb69b70527ba0001c25872	804367565	1	main_z	11	main_z	19	stimuli_distractor_diamondtriangles.svg	stimuli_target_trianglesquares.svg	30	yes	0	0	2000
6.6.1	win	2022-12-26	22:47:28	22:57:15	582371	5acb69b70527ba0001c25872	804367565	1	main_z	11	advance_on_keypress_ZEE	20	stimuli_distractor_diamondtriangles.svg	stimuli_target_trianglesquares.svg	30	yes	57	0	277
6.6.1	win	2022-12-26	22:47:28	22:57:17	584147	5acb69b70527ba0001c25872	804367565	1	main_z	11	main_z	21	stimuli_target_diamondcircles.svg	stimuli_distractor_diamondtriangles.svg	23	yes	44	1	853
6.6.1	win	2022-12-26	22:47:28	22:57:17	584147	5acb69b70527ba0001c25872	804367565	1	main_z	11	advance_on_keypress_ZEE	22	stimuli_target_diamondcircles.svg	stimuli_distractor_diamondtriangles.svg	23	yes	57	0	406
6.6.1	win	2022-12-26	22:47:28	22:57:19	585851	5acb69b70527ba0001c25872	804367565	1	main_z	11	main_z	23	stimuli_target_circlediamonds.svg	stimuli_distractor_trianglediamonds.svg	2	yes	44	1	649
6.6.1	win	2022-12-26	22:47:28	22:57:19	585851	5acb69b70527ba0001c25872	804367565	1	main_z	11	advance_on_keypress_ZEE	24	stimuli_target_circlediamonds.svg	stimuli_distractor_trianglediamonds.svg	2	yes	57	0	231
6.6.1	win	2022-12-26	22:47:28	22:57:21	588254	5acb69b70527ba0001c25872	804367565	1	main_z	11	main_z	25	stimuli_distractor_trianglediamonds.svg	stimuli_target_circletriangles.svg	9	yes	44	1	1538
6.6.1	win	2022-12-26	22:47:28	22:57:21	588254	5acb69b70527ba0001c25872	804367565	1	main_z	11	advance_on_keypress_ZEE	26	stimuli_distractor_trianglediamonds.svg	stimuli_target_circletriangles.svg	9	yes	57	0	153
6.6.1	win	2022-12-26	22:47:28	22:57:24	591055	5acb69b70527ba0001c25872	804367565	1	main_z	11	main_z	27	stimuli_target_trianglesquares.svg	stimuli_distractor_diamondtriangles.svg	22	yes	0	0	2000
6.6.1	win	2022-12-26	22:47:28	22:57:24	591055	5acb69b70527ba0001c25872	804367565	1	main_z	11	advance_on_keypress_ZEE	28	stimuli_target_trianglesquares.svg	stimuli_distractor_diamondtriangles.svg	22	yes	57	0	705
6.6.1	win	2022-12-26	22:47:28	22:57:27	594405	5acb69b70527ba0001c25872	804367565	1	main_z	11	main_z	29	stimuli_distractor_trianglediamonds.svg	stimuli_distractor_trianglediamonds.svg	33	no	0	1	2000
6.6.1	win	2022-12-26	22:47:28	22:57:27	594405	5acb69b70527ba0001c25872	804367565	1	main_z	11	advance_on_keypress_ZEE	30	stimuli_distractor_trianglediamonds.svg	stimuli_distractor_trianglediamonds.svg	33	no	57	0	316
6.6.1	win	2022-12-26	22:47:28	22:57:30	597366	5acb69b70527ba0001c25872	804367565	1	main_z	11	main_z	31	stimuli_target_diamondcircles.svg	stimuli_distractor_trianglediamonds.svg	19	yes	0	0	2000
6.6.1	win	2022-12-26	22:47:28	22:57:30	597366	5acb69b70527ba0001c25872	804367565	1	main_z	11	advance_on_keypress_ZEE	32	stimuli_target_diamondcircles.svg	stimuli_distractor_trianglediamonds.svg	19	yes	57	0	310
6.6.1	win	2022-12-26	22:47:28	22:57:33	600306	5acb69b70527ba0001c25872	804367565	1	main_z	11	main_z	33	stimuli_distractor_trianglediamonds.svg	stimuli_distractor_diamondtriangles.svg	36	no	0	1	2000
6.6.1	win	2022-12-26	22:47:28	22:57:33	600306	5acb69b70527ba0001c25872	804367565	1	main_z	11	advance_on_keypress_ZEE	34	stimuli_distractor_trianglediamonds.svg	stimuli_distractor_diamondtriangles.svg	36	no	57	0	304
6.6.1	win	2022-12-26	22:47:28	22:57:35	602011	5acb69b70527ba0001c25872	804367565	1	main_z	11	main_z	35	stimuli_distractor_trianglediamonds.svg	stimuli_target_trianglesquares.svg	26	yes	44	1	768
6.6.1	win	2022-12-26	22:47:28	22:57:35	602011	5acb69b70527ba0001c25872	804367565	1	main_z	11	advance_on_keypress_ZEE	36	stimuli_distractor_trianglediamonds.svg	stimuli_target_trianglesquares.svg	26	yes	57	0	303
6.6.1	win	2022-12-26	22:47:28	22:57:37	603800	5acb69b70527ba0001c25872	804367565	1	main_z	11	main_z	37	stimuli_target_squaretriangles.svg	stimuli_distractor_trianglediamonds.svg	3	yes	44	1	834
6.6.1	win	2022-12-26	22:47:28	22:57:37	603800	5acb69b70527ba0001c25872	804367565	1	main_z	11	advance_on_keypress_ZEE	38	stimuli_target_squaretriangles.svg	stimuli_distractor_trianglediamonds.svg	3	yes	57	0	156
6.6.1	win	2022-12-26	22:47:28	22:57:39	605491	5acb69b70527ba0001c25872	804367565	1	main_z	11	main_z	39	stimuli_target_diamondsquares.svg	stimuli_distractor_trianglediamonds.svg	20	yes	44	1	893
6.6.1	win	2022-12-26	22:47:28	22:57:39	605491	5acb69b70527ba0001c25872	804367565	1	main_z	11	advance_on_keypress_ZEE	40	stimuli_target_diamondsquares.svg	stimuli_distractor_trianglediamonds.svg	20	yes	57	0	125
6.6.1	win	2022-12-26	22:47:28	22:57:41	608232	5acb69b70527ba0001c25872	804367565	1	main_z	11	main_z	41	stimuli_distractor_trianglediamonds.svg	stimuli_distractor_diamondtriangles.svg	35	no	44	0	1965
6.6.1	win	2022-12-26	22:47:28	22:57:41	608232	5acb69b70527ba0001c25872	804367565	1	main_z	11	advance_on_keypress_ZEE	42	stimuli_distractor_trianglediamonds.svg	stimuli_distractor_diamondtriangles.svg	35	no	57	0	141
6.6.1	win	2022-12-26	22:47:28	22:57:43	609927	5acb69b70527ba0001c25872	804367565	1	main_z	11	main_z	43	stimuli_target_squaretriangles.svg	stimuli_distractor_diamondtriangles.svg	7	yes	44	1	904
6.6.1	win	2022-12-26	22:47:28	22:57:43	609927	5acb69b70527ba0001c25872	804367565	1	main_z	11	advance_on_keypress_ZEE	44	stimuli_target_squaretriangles.svg	stimuli_distractor_diamondtriangles.svg	7	yes	57	0	166
6.6.1	win	2022-12-26	22:47:28	22:57:45	612215	5acb69b70527ba0001c25872	804367565	1	main_z	11	main_z	45	stimuli_target_trianglesquares.svg	stimuli_distractor_trianglediamonds.svg	18	yes	44	1	1493
6.6.1	win	2022-12-26	22:47:28	22:57:45	612215	5acb69b70527ba0001c25872	804367565	1	main_z	11	advance_on_keypress_ZEE	46	stimuli_target_trianglesquares.svg	stimuli_distractor_trianglediamonds.svg	18	yes	57	0	253
6.6.1	win	2022-12-26	22:47:28	22:57:47	614146	5acb69b70527ba0001c25872	804367565	1	main_z	11	main_z	47	stimuli_distractor_diamondtriangles.svg	stimuli_target_circletriangles.svg	13	yes	44	1	1035
6.6.1	win	2022-12-26	22:47:28	22:57:47	614146	5acb69b70527ba0001c25872	804367565	1	main_z	11	advance_on_keypress_ZEE	48	stimuli_distractor_diamondtriangles.svg	stimuli_target_circletriangles.svg	13	yes	57	0	138
6.6.1	win	2022-12-26	22:47:28	22:57:49	615695	5acb69b70527ba0001c25872	804367565	1	main_z	11	main_z	49	stimuli_target_circletriangles.svg	stimuli_distractor_trianglediamonds.svg	1	yes	44	1	766
6.6.1	win	2022-12-26	22:47:28	22:57:49	615695	5acb69b70527ba0001c25872	804367565	1	main_z	11	advance_on_keypress_ZEE	50	stimuli_target_circletriangles.svg	stimuli_distractor_trianglediamonds.svg	1	yes	57	0	120
6.6.1	win	2022-12-26	22:47:28	22:57:51	618453	5acb69b70527ba0001c25872	804367565	1	main_z	11	main_z	51	stimuli_distractor_diamondtriangles.svg	stimuli_distractor_diamondtriangles.svg	39	no	0	1	2000
6.6.1	win	2022-12-26	22:47:28	22:57:51	618453	5acb69b70527ba0001c25872	804367565	1	main_z	11	advance_on_keypress_ZEE	52	stimuli_distractor_diamondtriangles.svg	stimuli_distractor_diamondtriangles.svg	39	no	57	0	1001
6.6.1	win	2022-12-26	22:47:28	22:57:54	620797	5acb69b70527ba0001c25872	804367565	1	main_z	11	main_z	53	stimuli_distractor_trianglediamonds.svg	stimuli_target_squaretriangles.svg	11	yes	44	1	709
6.6.1	win	2022-12-26	22:47:28	22:57:54	620797	5acb69b70527ba0001c25872	804367565	1	main_z	11	advance_on_keypress_ZEE	54	stimuli_distractor_trianglediamonds.svg	stimuli_target_squaretriangles.svg	11	yes	57	0	157
6.6.1	win	2022-12-26	22:47:28	22:57:57	623584	5acb69b70527ba0001c25872	804367565	1	main_z	11	main_z	55	stimuli_distractor_trianglediamonds.svg	stimuli_target_diamondsquares.svg	28	yes	0	0	2000
6.6.1	win	2022-12-26	22:47:28	22:57:57	623584	5acb69b70527ba0001c25872	804367565	1	main_z	11	advance_on_keypress_ZEE	56	stimuli_distractor_trianglediamonds.svg	stimuli_target_diamondsquares.svg	28	yes	57	0	54
6.6.1	win	2022-12-26	22:47:28	22:57:58	624876	5acb69b70527ba0001c25872	804367565	1	main_z	11	main_z	57	stimuli_distractor_trianglediamonds.svg	stimuli_target_squarediamonds.svg	12	yes	44	1	610
6.6.1	win	2022-12-26	22:47:28	22:57:58	624876	5acb69b70527ba0001c25872	804367565	1	main_z	11	advance_on_keypress_ZEE	58	stimuli_distractor_trianglediamonds.svg	stimuli_target_squarediamonds.svg	12	yes	57	0	190
6.6.1	win	2022-12-26	22:47:28	22:58:01	627692	5acb69b70527ba0001c25872	804367565	1	main_z	11	main_z	59	stimuli_distractor_diamondtriangles.svg	stimuli_target_diamondsquares.svg	32	yes	0	0	2000
6.6.1	win	2022-12-26	22:47:28	22:58:01	627692	5acb69b70527ba0001c25872	804367565	1	main_z	11	advance_on_keypress_ZEE	60	stimuli_distractor_diamondtriangles.svg	stimuli_target_diamondsquares.svg	32	yes	57	0	321
6.6.1	win	2022-12-26	22:47:28	22:58:02	629341	5acb69b70527ba0001c25872	804367565	1	main_z	11	main_z	61	stimuli_distractor_trianglediamonds.svg	stimuli_target_circlediamonds.svg	10	yes	44	1	685
6.6.1	win	2022-12-26	22:47:28	22:58:02	629341	5acb69b70527ba0001c25872	804367565	1	main_z	11	advance_on_keypress_ZEE	62	stimuli_distractor_trianglediamonds.svg	stimuli_target_circlediamonds.svg	10	yes	57	0	156
6.6.1	win	2022-12-26	22:47:28	22:58:04	630971	5acb69b70527ba0001c25872	804367565	1	main_z	11	main_z	63	stimuli_distractor_trianglediamonds.svg	stimuli_target_diamondcircles.svg	27	yes	44	1	824
6.6.1	win	2022-12-26	22:47:28	22:58:04	630971	5acb69b70527ba0001c25872	804367565	1	main_z	11	advance_on_keypress_ZEE	64	stimuli_distractor_trianglediamonds.svg	stimuli_target_diamondcircles.svg	27	yes	57	0	124
6.6.1	win	2022-12-26	22:47:28	22:58:07	633501	5acb69b70527ba0001c25872	804367565	1	main_z	11	main_z	65	stimuli_distractor_trianglediamonds.svg	stimuli_target_trianglecircles.svg	25	yes	44	1	1758
6.6.1	win	2022-12-26	22:47:28	22:58:07	633501	5acb69b70527ba0001c25872	804367565	1	main_z	11	advance_on_keypress_ZEE	66	stimuli_distractor_trianglediamonds.svg	stimuli_target_trianglecircles.svg	25	yes	57	0	110
6.6.1	win	2022-12-26	22:47:28	22:58:09	636249	5acb69b70527ba0001c25872	804367565	1	main_z	11	main_z	67	stimuli_distractor_diamondtriangles.svg	stimuli_distractor_trianglediamonds.svg	38	no	0	1	2000
6.6.1	win	2022-12-26	22:47:28	22:58:09	636249	5acb69b70527ba0001c25872	804367565	1	main_z	11	advance_on_keypress_ZEE	68	stimuli_distractor_diamondtriangles.svg	stimuli_distractor_trianglediamonds.svg	38	no	57	0	857
6.6.1	win	2022-12-26	22:47:28	22:58:13	639756	5acb69b70527ba0001c25872	804367565	1	main_z	11	main_z	69	stimuli_distractor_diamondtriangles.svg	stimuli_target_diamondcircles.svg	31	yes	0	0	2000
6.6.1	win	2022-12-26	22:47:28	22:58:13	639756	5acb69b70527ba0001c25872	804367565	1	main_z	11	advance_on_keypress_ZEE	70	stimuli_distractor_diamondtriangles.svg	stimuli_target_diamondcircles.svg	31	yes	57	0	276
6.6.1	win	2022-12-26	22:47:28	22:58:14	641468	5acb69b70527ba0001c25872	804367565	1	main_z	11	main_z	71	stimuli_target_trianglecircles.svg	stimuli_distractor_trianglediamonds.svg	17	yes	44	1	791
6.6.1	win	2022-12-26	22:47:28	22:58:14	641468	5acb69b70527ba0001c25872	804367565	1	main_z	11	advance_on_keypress_ZEE	72	stimuli_target_trianglecircles.svg	stimuli_distractor_trianglediamonds.svg	17	yes	57	0	158
6.6.1	win	2022-12-26	22:47:28	22:58:16	643076	5acb69b70527ba0001c25872	804367565	1	main_z	11	main_z	73	stimuli_target_squarediamonds.svg	stimuli_distractor_diamondtriangles.svg	8	yes	44	1	809
6.6.1	win	2022-12-26	22:47:28	22:58:16	643076	5acb69b70527ba0001c25872	804367565	1	main_z	11	advance_on_keypress_ZEE	74	stimuli_target_squarediamonds.svg	stimuli_distractor_diamondtriangles.svg	8	yes	57	0	157
6.6.1	win	2022-12-26	22:47:28	22:58:18	644764	5acb69b70527ba0001c25872	804367565	1	main_z	11	main_z	75	stimuli_target_trianglecircles.svg	stimuli_distractor_diamondtriangles.svg	21	yes	44	1	900
6.6.1	win	2022-12-26	22:47:28	22:58:18	644764	5acb69b70527ba0001c25872	804367565	1	main_z	11	advance_on_keypress_ZEE	76	stimuli_target_trianglecircles.svg	stimuli_distractor_diamondtriangles.svg	21	yes	57	0	113
6.6.1	win	2022-12-26	22:47:28	22:58:20	647338	5acb69b70527ba0001c25872	804367565	1	main_z	11	main_z	77	stimuli_distractor_diamondtriangles.svg	stimuli_target_squarediamonds.svg	16	yes	44	1	1832
6.6.1	win	2022-12-26	22:47:28	22:58:20	647338	5acb69b70527ba0001c25872	804367565	1	main_z	11	advance_on_keypress_ZEE	78	stimuli_distractor_diamondtriangles.svg	stimuli_target_squarediamonds.svg	16	yes	57	0	140
6.6.1	win	2022-12-26	22:47:28	22:58:22	649115	5acb69b70527ba0001c25872	804367565	1	main_z	11	main_z	79	stimuli_distractor_diamondtriangles.svg	stimuli_target_trianglecircles.svg	29	yes	44	1	983
6.6.1	win	2022-12-26	22:47:28	22:58:22	649115	5acb69b70527ba0001c25872	804367565	1	main_z	11	advance_on_keypress_ZEE	80	stimuli_distractor_diamondtriangles.svg	stimuli_target_trianglecircles.svg	29	yes	57	0	164
6.6.1	win	2022-12-26	22:47:28	22:58:25	651902	5acb69b70527ba0001c25872	804367565	1	main_z	11	main_z	81	stimuli_distractor_diamondtriangles.svg	stimuli_distractor_trianglediamonds.svg	38	no	0	1	2000
6.6.1	win	2022-12-26	22:47:28	22:58:25	651902	5acb69b70527ba0001c25872	804367565	1	main_z	11	advance_on_keypress_ZEE	82	stimuli_distractor_diamondtriangles.svg	stimuli_distractor_trianglediamonds.svg	38	no	57	0	629
6.6.1	win	2022-12-26	22:47:28	22:58:27	653922	5acb69b70527ba0001c25872	804367565	1	main_z	11	main_z	83	stimuli_target_diamondsquares.svg	stimuli_distractor_diamondtriangles.svg	24	yes	44	1	759
6.6.1	win	2022-12-26	22:47:28	22:58:27	653922	5acb69b70527ba0001c25872	804367565	1	main_z	11	advance_on_keypress_ZEE	84	stimuli_target_diamondsquares.svg	stimuli_distractor_diamondtriangles.svg	24	yes	57	0	134
6.6.1	win	2022-12-26	22:47:28	22:58:28	655454	5acb69b70527ba0001c25872	804367565	1	main_z	11	main_z	85	stimuli_distractor_trianglediamonds.svg	stimuli_target_squarediamonds.svg	12	yes	44	1	754
6.6.1	win	2022-12-26	22:47:28	22:58:28	655454	5acb69b70527ba0001c25872	804367565	1	main_z	11	advance_on_keypress_ZEE	86	stimuli_distractor_trianglediamonds.svg	stimuli_target_squarediamonds.svg	12	yes	57	0	113
6.6.1	win	2022-12-26	22:47:28	22:58:31	658199	5acb69b70527ba0001c25872	804367565	1	main_z	11	main_z	87	stimuli_distractor_trianglediamonds.svg	stimuli_distractor_trianglediamonds.svg	34	no	0	1	2000
6.6.1	win	2022-12-26	22:47:28	22:58:31	658199	5acb69b70527ba0001c25872	804367565	1	main_z	11	advance_on_keypress_ZEE	88	stimuli_distractor_trianglediamonds.svg	stimuli_distractor_trianglediamonds.svg	34	no	57	0	347
6.6.1	win	2022-12-26	22:47:28	22:58:33	659927	5acb69b70527ba0001c25872	804367565	1	main_z	11	main_z	89	stimuli_target_circlediamonds.svg	stimuli_distractor_trianglediamonds.svg	2	yes	44	1	751
6.6.1	win	2022-12-26	22:47:28	22:58:33	659927	5acb69b70527ba0001c25872	804367565	1	main_z	11	advance_on_keypress_ZEE	90	stimuli_target_circlediamonds.svg	stimuli_distractor_trianglediamonds.svg	2	yes	57	0	119
6.6.1	win	2022-12-26	22:47:28	22:58:34	661405	5acb69b70527ba0001c25872	804367565	1	main_z	11	main_z	91	stimuli_distractor_diamondtriangles.svg	stimuli_target_circlediamonds.svg	14	yes	44	1	739
6.6.1	win	2022-12-26	22:47:28	22:58:34	661405	5acb69b70527ba0001c25872	804367565	1	main_z	11	advance_on_keypress_ZEE	92	stimuli_distractor_diamondtriangles.svg	stimuli_target_circlediamonds.svg	14	yes	57	0	94
6.6.1	win	2022-12-26	22:47:28	22:58:36	662892	5acb69b70527ba0001c25872	804367565	1	main_z	11	main_z	93	stimuli_distractor_trianglediamonds.svg	stimuli_target_circletriangles.svg	9	yes	44	1	753
6.6.1	win	2022-12-26	22:47:28	22:58:36	662892	5acb69b70527ba0001c25872	804367565	1	main_z	11	advance_on_keypress_ZEE	94	stimuli_distractor_trianglediamonds.svg	stimuli_target_circletriangles.svg	9	yes	57	0	87
6.6.1	win	2022-12-26	22:47:28	22:58:37	664364	5acb69b70527ba0001c25872	804367565	1	main_z	11	main_z	95	stimuli_target_squarediamonds.svg	stimuli_distractor_diamondtriangles.svg	8	yes	44	1	762
6.6.1	win	2022-12-26	22:47:28	22:58:37	664364	5acb69b70527ba0001c25872	804367565	1	main_z	11	advance_on_keypress_ZEE	96	stimuli_target_squarediamonds.svg	stimuli_distractor_diamondtriangles.svg	8	yes	57	0	128
6.6.1	win	2022-12-26	22:47:28	22:58:39	665850	5acb69b70527ba0001c25872	804367565	1	main_z	11	main_z	97	stimuli_target_circlediamonds.svg	stimuli_distractor_diamondtriangles.svg	6	yes	44	1	719
6.6.1	win	2022-12-26	22:47:28	22:58:39	665850	5acb69b70527ba0001c25872	804367565	1	main_z	11	advance_on_keypress_ZEE	98	stimuli_target_circlediamonds.svg	stimuli_distractor_diamondtriangles.svg	6	yes	57	0	94
6.6.1	win	2022-12-26	22:47:28	22:58:42	668581	5acb69b70527ba0001c25872	804367565	1	main_z	11	main_z	99	stimuli_distractor_trianglediamonds.svg	stimuli_target_diamondsquares.svg	28	yes	0	0	2000
6.6.1	win	2022-12-26	22:47:28	22:58:42	668581	5acb69b70527ba0001c25872	804367565	1	main_z	11	advance_on_keypress_ZEE	100	stimuli_distractor_trianglediamonds.svg	stimuli_target_diamondsquares.svg	28	yes	57	0	446
6.6.1	win	2022-12-26	22:47:28	22:58:45	671651	5acb69b70527ba0001c25872	804367565	1	main_z	11	main_z	101	stimuli_target_diamondcircles.svg	stimuli_distractor_trianglediamonds.svg	19	yes	0	0	2000
6.6.1	win	2022-12-26	22:47:28	22:58:45	671651	5acb69b70527ba0001c25872	804367565	1	main_z	11	advance_on_keypress_ZEE	102	stimuli_target_diamondcircles.svg	stimuli_distractor_trianglediamonds.svg	19	yes	57	0	284
6.6.1	win	2022-12-26	22:47:28	22:58:46	673364	5acb69b70527ba0001c25872	804367565	1	main_z	11	main_z	103	stimuli_distractor_trianglediamonds.svg	stimuli_target_trianglecircles.svg	25	yes	44	1	800
6.6.1	win	2022-12-26	22:47:28	22:58:46	673364	5acb69b70527ba0001c25872	804367565	1	main_z	11	advance_on_keypress_ZEE	104	stimuli_distractor_trianglediamonds.svg	stimuli_target_trianglecircles.svg	25	yes	57	0	93
6.6.1	win	2022-12-26	22:47:28	22:58:49	675494	5acb69b70527ba0001c25872	804367565	1	main_z	11	main_z	105	stimuli_target_diamondsquares.svg	stimuli_distractor_trianglediamonds.svg	20	yes	44	1	1395
6.6.1	win	2022-12-26	22:47:28	22:58:49	675494	5acb69b70527ba0001c25872	804367565	1	main_z	11	advance_on_keypress_ZEE	106	stimuli_target_diamondsquares.svg	stimuli_distractor_trianglediamonds.svg	20	yes	57	0	100
6.6.1	win	2022-12-26	22:47:28	22:58:50	676975	5acb69b70527ba0001c25872	804367565	1	main_z	11	main_z	107	stimuli_target_trianglecircles.svg	stimuli_distractor_trianglediamonds.svg	17	yes	44	1	739
6.6.1	win	2022-12-26	22:47:28	22:58:50	676975	5acb69b70527ba0001c25872	804367565	1	main_z	11	advance_on_keypress_ZEE	108	stimuli_target_trianglecircles.svg	stimuli_distractor_trianglediamonds.svg	17	yes	57	0	99
6.6.1	win	2022-12-26	22:47:28	22:58:52	679144	5acb69b70527ba0001c25872	804367565	1	main_z	11	main_z	109	stimuli_target_squarediamonds.svg	stimuli_distractor_trianglediamonds.svg	4	yes	44	1	1437
6.6.1	win	2022-12-26	22:47:28	22:58:52	679144	5acb69b70527ba0001c25872	804367565	1	main_z	11	advance_on_keypress_ZEE	110	stimuli_target_squarediamonds.svg	stimuli_distractor_trianglediamonds.svg	4	yes	57	0	134
6.6.1	win	2022-12-26	22:47:28	22:58:54	680616	5acb69b70527ba0001c25872	804367565	1	main_z	11	main_z	111	stimuli_target_squaretriangles.svg	stimuli_distractor_trianglediamonds.svg	3	yes	44	1	709
6.6.1	win	2022-12-26	22:47:28	22:58:54	680616	5acb69b70527ba0001c25872	804367565	1	main_z	11	advance_on_keypress_ZEE	112	stimuli_target_squaretriangles.svg	stimuli_distractor_trianglediamonds.svg	3	yes	57	0	133
6.6.1	win	2022-12-26	22:47:28	22:58:56	683403	5acb69b70527ba0001c25872	804367565	1	main_z	11	main_z	113	stimuli_target_diamondcircles.svg	stimuli_distractor_diamondtriangles.svg	23	yes	0	0	2000
6.6.1	win	2022-12-26	22:47:28	22:58:56	683403	5acb69b70527ba0001c25872	804367565	1	main_z	11	advance_on_keypress_ZEE	114	stimuli_target_diamondcircles.svg	stimuli_distractor_diamondtriangles.svg	23	yes	57	0	684
6.6.1	win	2022-12-26	22:47:28	22:59:00	686735	5acb69b70527ba0001c25872	804367565	1	main_z	11	main_z	115	stimuli_distractor_diamondtriangles.svg	stimuli_target_diamondcircles.svg	31	yes	0	0	2000
6.6.1	win	2022-12-26	22:47:28	22:59:00	686735	5acb69b70527ba0001c25872	804367565	1	main_z	11	advance_on_keypress_ZEE	116	stimuli_distractor_diamondtriangles.svg	stimuli_target_diamondcircles.svg	31	yes	57	0	208
6.6.1	win	2022-12-26	22:47:28	22:59:02	688495	5acb69b70527ba0001c25872	804367565	1	main_z	11	main_z	117	stimuli_target_trianglesquares.svg	stimuli_distractor_trianglediamonds.svg	18	yes	44	1	909
6.6.1	win	2022-12-26	22:47:28	22:59:02	688495	5acb69b70527ba0001c25872	804367565	1	main_z	11	advance_on_keypress_ZEE	118	stimuli_target_trianglesquares.svg	stimuli_distractor_trianglediamonds.svg	18	yes	57	0	127
6.6.1	win	2022-12-26	22:47:28	22:59:03	690150	5acb69b70527ba0001c25872	804367565	1	main_z	11	main_z	119	stimuli_distractor_diamondtriangles.svg	stimuli_target_trianglesquares.svg	30	yes	44	1	886
6.6.1	win	2022-12-26	22:47:28	22:59:03	690150	5acb69b70527ba0001c25872	804367565	1	main_z	11	advance_on_keypress_ZEE	120	stimuli_distractor_diamondtriangles.svg	stimuli_target_trianglesquares.svg	30	yes	57	0	104
6.6.1	win	2022-12-26	22:47:28	22:59:06	692690	5acb69b70527ba0001c25872	804367565	1	main_z	11	main_z	121	stimuli_distractor_diamondtriangles.svg	stimuli_distractor_diamondtriangles.svg	40	no	44	0	1795
6.6.1	win	2022-12-26	22:47:28	22:59:06	692690	5acb69b70527ba0001c25872	804367565	1	main_z	11	advance_on_keypress_ZEE	122	stimuli_distractor_diamondtriangles.svg	stimuli_distractor_diamondtriangles.svg	40	no	57	0	96
6.6.1	win	2022-12-26	22:47:28	22:59:08	695115	5acb69b70527ba0001c25872	804367565	1	main_z	11	main_z	123	stimuli_target_trianglesquares.svg	stimuli_distractor_diamondtriangles.svg	22	yes	44	1	1687
6.6.1	win	2022-12-26	22:47:28	22:59:08	695115	5acb69b70527ba0001c25872	804367565	1	main_z	11	advance_on_keypress_ZEE	124	stimuli_target_trianglesquares.svg	stimuli_distractor_diamondtriangles.svg	22	yes	57	0	163
6.6.1	win	2022-12-26	22:47:28	22:59:10	696768	5acb69b70527ba0001c25872	804367565	1	main_z	11	main_z	125	stimuli_distractor_trianglediamonds.svg	stimuli_target_circlediamonds.svg	10	yes	44	1	863
6.6.1	win	2022-12-26	22:47:28	22:59:10	696768	5acb69b70527ba0001c25872	804367565	1	main_z	11	advance_on_keypress_ZEE	126	stimuli_distractor_trianglediamonds.svg	stimuli_target_circlediamonds.svg	10	yes	57	0	87
6.6.1	win	2022-12-26	22:47:28	22:59:13	699507	5acb69b70527ba0001c25872	804367565	1	main_z	11	main_z	127	stimuli_distractor_diamondtriangles.svg	stimuli_distractor_trianglediamonds.svg	37	no	0	1	2000
6.6.1	win	2022-12-26	22:47:28	22:59:13	699507	5acb69b70527ba0001c25872	804367565	1	main_z	11	advance_on_keypress_ZEE	128	stimuli_distractor_diamondtriangles.svg	stimuli_distractor_trianglediamonds.svg	37	no	57	0	782
6.6.1	win	2022-12-26	22:47:28	22:59:16	702930	5acb69b70527ba0001c25872	804367565	1	main_z	11	main_z	129	stimuli_target_trianglecircles.svg	stimuli_distractor_diamondtriangles.svg	21	yes	0	0	2000
6.6.1	win	2022-12-26	22:47:28	22:59:16	702930	5acb69b70527ba0001c25872	804367565	1	main_z	11	advance_on_keypress_ZEE	130	stimuli_target_trianglecircles.svg	stimuli_distractor_diamondtriangles.svg	21	yes	57	0	308
6.6.1	win	2022-12-26	22:47:28	22:59:18	705029	5acb69b70527ba0001c25872	804367565	1	main_z	11	main_z	131	stimuli_distractor_trianglediamonds.svg	stimuli_target_trianglesquares.svg	26	yes	44	1	1171
6.6.1	win	2022-12-26	22:47:28	22:59:18	705029	5acb69b70527ba0001c25872	804367565	1	main_z	11	advance_on_keypress_ZEE	132	stimuli_distractor_trianglediamonds.svg	stimuli_target_trianglesquares.svg	26	yes	57	0	985
6.6.1	win	2022-12-26	22:47:28	22:59:20	707381	5acb69b70527ba0001c25872	804367565	1	main_z	11	main_z	133	stimuli_distractor_diamondtriangles.svg	stimuli_target_circletriangles.svg	13	yes	44	1	721
6.6.1	win	2022-12-26	22:47:28	22:59:20	707381	5acb69b70527ba0001c25872	804367565	1	main_z	11	advance_on_keypress_ZEE	134	stimuli_distractor_diamondtriangles.svg	stimuli_target_circletriangles.svg	13	yes	57	0	134
6.6.1	win	2022-12-26	22:47:28	22:59:22	708872	5acb69b70527ba0001c25872	804367565	1	main_z	11	main_z	135	stimuli_distractor_diamondtriangles.svg	stimuli_target_squarediamonds.svg	16	yes	44	1	724
6.6.1	win	2022-12-26	22:47:28	22:59:22	708872	5acb69b70527ba0001c25872	804367565	1	main_z	11	advance_on_keypress_ZEE	136	stimuli_distractor_diamondtriangles.svg	stimuli_target_squarediamonds.svg	16	yes	57	0	115
6.6.1	win	2022-12-26	22:47:28	22:59:25	711621	5acb69b70527ba0001c25872	804367565	1	main_z	11	main_z	137	stimuli_distractor_trianglediamonds.svg	stimuli_distractor_trianglediamonds.svg	33	no	0	1	2000
6.6.1	win	2022-12-26	22:47:28	22:59:25	711621	5acb69b70527ba0001c25872	804367565	1	main_z	11	advance_on_keypress_ZEE	138	stimuli_distractor_trianglediamonds.svg	stimuli_distractor_trianglediamonds.svg	33	no	57	0	522
6.6.1	win	2022-12-26	22:47:28	22:59:28	714785	5acb69b70527ba0001c25872	804367565	1	main_z	11	main_z	139	stimuli_distractor_diamondtriangles.svg	stimuli_target_trianglecircles.svg	29	yes	0	0	2000
6.6.1	win	2022-12-26	22:47:28	22:59:28	714785	5acb69b70527ba0001c25872	804367565	1	main_z	11	advance_on_keypress_ZEE	140	stimuli_distractor_diamondtriangles.svg	stimuli_target_trianglecircles.svg	29	yes	57	0	230
6.6.1	win	2022-12-26	22:47:28	22:59:29	716292	5acb69b70527ba0001c25872	804367565	1	main_z	11	main_z	141	stimuli_distractor_trianglediamonds.svg	stimuli_target_squaretriangles.svg	11	yes	44	1	657
6.6.1	win	2022-12-26	22:47:28	22:59:29	716292	5acb69b70527ba0001c25872	804367565	1	main_z	11	advance_on_keypress_ZEE	142	stimuli_distractor_trianglediamonds.svg	stimuli_target_squaretriangles.svg	11	yes	57	0	148
6.6.1	win	2022-12-26	22:47:28	22:59:32	719081	5acb69b70527ba0001c25872	804367565	1	main_z	11	main_z	143	stimuli_distractor_diamondtriangles.svg	stimuli_target_diamondsquares.svg	32	yes	0	0	2000
6.6.1	win	2022-12-26	22:47:28	22:59:32	719081	5acb69b70527ba0001c25872	804367565	1	main_z	11	advance_on_keypress_ZEE	144	stimuli_distractor_diamondtriangles.svg	stimuli_target_diamondsquares.svg	32	yes	57	0	635
6.6.1	win	2022-12-26	22:47:28	22:59:34	721077	5acb69b70527ba0001c25872	804367565	1	main_z	11	main_z	145	stimuli_target_circletriangles.svg	stimuli_distractor_diamondtriangles.svg	5	yes	44	1	727
6.6.1	win	2022-12-26	22:47:28	22:59:34	721077	5acb69b70527ba0001c25872	804367565	1	main_z	11	advance_on_keypress_ZEE	146	stimuli_target_circletriangles.svg	stimuli_distractor_diamondtriangles.svg	5	yes	57	0	135
6.6.1	win	2022-12-26	22:47:28	22:59:37	723829	5acb69b70527ba0001c25872	804367565	1	main_z	11	main_z	147	stimuli_distractor_diamondtriangles.svg	stimuli_distractor_diamondtriangles.svg	39	no	0	1	2000
6.6.1	win	2022-12-26	22:47:28	22:59:37	723829	5acb69b70527ba0001c25872	804367565	1	main_z	11	advance_on_keypress_ZEE	148	stimuli_distractor_diamondtriangles.svg	stimuli_distractor_diamondtriangles.svg	39	no	57	0	382
6.6.1	win	2022-12-26	22:47:28	22:59:39	725531	5acb69b70527ba0001c25872	804367565	1	main_z	11	main_z	149	stimuli_target_circletriangles.svg	stimuli_distractor_trianglediamonds.svg	1	yes	44	1	703
6.6.1	win	2022-12-26	22:47:28	22:59:39	725531	5acb69b70527ba0001c25872	804367565	1	main_z	11	advance_on_keypress_ZEE	150	stimuli_target_circletriangles.svg	stimuli_distractor_trianglediamonds.svg	1	yes	57	0	144
6.6.1	win	2022-12-26	22:47:28	22:59:41	727542	5acb69b70527ba0001c25872	804367565	1	main_z	11	main_z	151	stimuli_distractor_trianglediamonds.svg	stimuli_target_diamondcircles.svg	27	yes	44	1	1247
6.6.1	win	2022-12-26	22:47:28	22:59:41	727542	5acb69b70527ba0001c25872	804367565	1	main_z	11	advance_on_keypress_ZEE	152	stimuli_distractor_trianglediamonds.svg	stimuli_target_diamondcircles.svg	27	yes	57	0	143
6.6.1	win	2022-12-26	22:47:28	22:59:42	729421	5acb69b70527ba0001c25872	804367565	1	main_z	11	main_z	153	stimuli_target_squaretriangles.svg	stimuli_distractor_diamondtriangles.svg	7	yes	44	1	1090
6.6.1	win	2022-12-26	22:47:28	22:59:42	729421	5acb69b70527ba0001c25872	804367565	1	main_z	11	advance_on_keypress_ZEE	154	stimuli_target_squaretriangles.svg	stimuli_distractor_diamondtriangles.svg	7	yes	57	0	136
6.6.1	win	2022-12-26	22:47:28	22:59:45	731965	5acb69b70527ba0001c25872	804367565	1	main_z	11	main_z	155	stimuli_distractor_trianglediamonds.svg	stimuli_distractor_diamondtriangles.svg	35	no	44	0	1763
6.6.1	win	2022-12-26	22:47:28	22:59:45	731965	5acb69b70527ba0001c25872	804367565	1	main_z	11	advance_on_keypress_ZEE	156	stimuli_distractor_trianglediamonds.svg	stimuli_distractor_diamondtriangles.svg	35	no	57	0	98
6.6.1	win	2022-12-26	22:47:28	22:59:47	733499	5acb69b70527ba0001c25872	804367565	1	main_z	11	main_z	157	stimuli_distractor_diamondtriangles.svg	stimuli_target_squaretriangles.svg	15	yes	44	1	785
6.6.1	win	2022-12-26	22:47:28	22:59:47	733499	5acb69b70527ba0001c25872	804367565	1	main_z	11	advance_on_keypress_ZEE	158	stimuli_distractor_diamondtriangles.svg	stimuli_target_squaretriangles.svg	15	yes	57	0	86
6.6.1	win	2022-12-26	22:47:28	22:59:48	735330	5acb69b70527ba0001c25872	804367565	1	main_z	11	main_z	159	stimuli_distractor_trianglediamonds.svg	stimuli_distractor_diamondtriangles.svg	36	no	44	0	1112
6.6.1	win	2022-12-26	22:47:28	22:59:48	735330	5acb69b70527ba0001c25872	804367565	1	main_z	11	advance_on_keypress_ZEE	160	stimuli_distractor_trianglediamonds.svg	stimuli_distractor_diamondtriangles.svg	36	no	57	0	69