build	computer.platform	date	time	timestamp	time_elapsed_ms	subject	group	session	blockcode	blocknum	trialcode	trialnum	stimulus_left	stimulus_right	stim_index	target_present	response	correct	latency
6.6.1	win	2022-12-15	17:37:09	17:39:19	128825	62e199458482518274623771	124296744	1	practice_z	5	practice_z	1	stimuli_distractor_diamondtriangles.svg	stimuli_distractor_diamondtriangles.svg	13	no	0	1	2000
6.6.1	win	2022-12-15	17:37:09	17:39:19	128825	62e199458482518274623771	124296744	1	practice_z	5	advance_on_keypress_ZEE	2	stimuli_distractor_diamondtriangles.svg	stimuli_distractor_diamondtriangles.svg	13	no	57	0	1119
6.6.1	win	2022-12-15	17:37:09	17:39:24	133596	62e199458482518274623771	124296744	1	practice_z	5	practice_z	3	stimuli_distractor_trianglediamonds.svg	stimuli_distractor_trianglediamonds.svg	15	no	0	1	2000
6.6.1	win	2022-12-15	17:37:09	17:39:24	133596	62e199458482518274623771	124296744	1	practice_z	5	advance_on_keypress_ZEE	4	stimuli_distractor_trianglediamonds.svg	stimuli_distractor_trianglediamonds.svg	15	no	57	0	1176
6.6.1	win	2022-12-15	17:37:09	17:39:28	137569	62e199458482518274623771	124296744	1	practice_z	5	practice_z	5	stimuli_target_diamondsquares.svg	stimuli_distractor_trianglediamonds.svg	6	yes	44	1	1153
6.6.1	win	2022-12-15	17:37:09	17:39:28	137569	62e199458482518274623771	124296744	1	practice_z	5	advance_on_keypress_ZEE	6	stimuli_target_diamondsquares.svg	stimuli_distractor_trianglediamonds.svg	6	yes	57	0	568
6.6.1	win	2022-12-15	17:37:09	17:39:31	140497	62e199458482518274623771	124296744	1	practice_z	5	practice_z	7	stimuli_target_diamondsquares.svg	stimuli_distractor_diamondtriangles.svg	3	yes	44	1	710
6.6.1	win	2022-12-15	17:37:09	17:39:31	140497	62e199458482518274623771	124296744	1	practice_z	5	advance_on_keypress_ZEE	8	stimuli_target_diamondsquares.svg	stimuli_distractor_diamondtriangles.svg	3	yes	57	0	535
6.6.1	win	2022-12-15	17:37:09	17:39:34	143452	62e199458482518274623771	124296744	1	practice_z	5	practice_z	9	stimuli_target_circlediamonds.svg	stimuli_distractor_trianglediamonds.svg	4	yes	44	1	779
6.6.1	win	2022-12-15	17:37:09	17:39:34	143452	62e199458482518274623771	124296744	1	practice_z	5	advance_on_keypress_ZEE	10	stimuli_target_circlediamonds.svg	stimuli_distractor_trianglediamonds.svg	4	yes	57	0	497
6.6.1	win	2022-12-15	17:37:09	17:39:37	146275	62e199458482518274623771	124296744	1	practice_z	5	practice_z	11	stimuli_distractor_diamondtriangles.svg	stimuli_target_trianglecircles.svg	9	yes	44	1	682
6.6.1	win	2022-12-15	17:37:09	17:39:37	146275	62e199458482518274623771	124296744	1	practice_z	5	advance_on_keypress_ZEE	12	stimuli_distractor_diamondtriangles.svg	stimuli_target_trianglecircles.svg	9	yes	57	0	581
6.6.1	win	2022-12-15	17:37:09	17:39:40	149434	62e199458482518274623771	124296744	1	practice_z	5	practice_z	13	stimuli_target_squarediamonds.svg	stimuli_distractor_trianglediamonds.svg	5	yes	44	1	938
6.6.1	win	2022-12-15	17:37:09	17:39:40	149434	62e199458482518274623771	124296744	1	practice_z	5	advance_on_keypress_ZEE	14	stimuli_target_squarediamonds.svg	stimuli_distractor_trianglediamonds.svg	5	yes	57	0	386
6.6.1	win	2022-12-15	17:37:09	17:39:42	152197	62e199458482518274623771	124296744	1	practice_z	5	practice_z	15	stimuli_target_circlediamonds.svg	stimuli_distractor_diamondtriangles.svg	1	yes	44	1	732
6.6.1	win	2022-12-15	17:37:09	17:39:42	152197	62e199458482518274623771	124296744	1	practice_z	5	advance_on_keypress_ZEE	16	stimuli_target_circlediamonds.svg	stimuli_distractor_diamondtriangles.svg	1	yes	57	0	760
6.6.1	win	2022-12-15	17:37:09	17:39:46	155251	62e199458482518274623771	124296744	1	practice_z	5	practice_z	17	stimuli_distractor_trianglediamonds.svg	stimuli_target_circlediamonds.svg	10	yes	44	1	667
6.6.1	win	2022-12-15	17:37:09	17:39:46	155251	62e199458482518274623771	124296744	1	practice_z	5	advance_on_keypress_ZEE	18	stimuli_distractor_trianglediamonds.svg	stimuli_target_circlediamonds.svg	10	yes	57	0	477
6.6.1	win	2022-12-15	17:37:09	17:39:48	157815	62e199458482518274623771	124296744	1	practice_z	5	practice_z	19	stimuli_distractor_diamondtriangles.svg	stimuli_target_diamondcircles.svg	8	yes	44	1	445
6.6.1	win	2022-12-15	17:37:09	17:39:48	157815	62e199458482518274623771	124296744	1	practice_z	5	advance_on_keypress_ZEE	20	stimuli_distractor_diamondtriangles.svg	stimuli_target_diamondcircles.svg	8	yes	57	0	516
6.6.1	win	2022-12-15	17:37:09	17:39:52	161954	62e199458482518274623771	124296744	1	practice_z	5	practice_z	21	stimuli_distractor_trianglediamonds.svg	stimuli_distractor_diamondtriangles.svg	16	no	44	0	412
6.6.1	win	2022-12-15	17:37:09	17:39:52	161954	62e199458482518274623771	124296744	1	practice_z	5	advance_on_keypress_ZEE	22	stimuli_distractor_trianglediamonds.svg	stimuli_distractor_diamondtriangles.svg	16	no	57	0	396
6.6.1	win	2022-12-15	17:37:09	17:39:55	164456	62e199458482518274623771	124296744	1	practice_z	5	practice_z	23	stimuli_distractor_trianglediamonds.svg	stimuli_target_diamondcircles.svg	12	yes	44	1	478
6.6.1	win	2022-12-15	17:37:09	17:39:55	164456	62e199458482518274623771	124296744	1	practice_z	5	advance_on_keypress_ZEE	24	stimuli_distractor_trianglediamonds.svg	stimuli_target_diamondcircles.svg	12	yes	57	0	400
6.6.1	win	2022-12-15	17:37:09	17:39:57	167138	62e199458482518274623771	124296744	1	practice_z	5	practice_z	25	stimuli_target_squarediamonds.svg	stimuli_distractor_diamondtriangles.svg	2	yes	44	1	641
6.6.1	win	2022-12-15	17:37:09	17:39:57	167138	62e199458482518274623771	124296744	1	practice_z	5	advance_on_keypress_ZEE	26	stimuli_target_squarediamonds.svg	stimuli_distractor_diamondtriangles.svg	2	yes	57	0	673
6.6.1	win	2022-12-15	17:37:09	17:40:00	170061	62e199458482518274623771	124296744	1	practice_z	5	practice_z	27	stimuli_distractor_diamondtriangles.svg	stimuli_target_circletriangles.svg	7	yes	44	1	611
6.6.1	win	2022-12-15	17:37:09	17:40:00	170061	62e199458482518274623771	124296744	1	practice_z	5	advance_on_keypress_ZEE	28	stimuli_distractor_diamondtriangles.svg	stimuli_target_circletriangles.svg	7	yes	57	0	465
6.6.1	win	2022-12-15	17:37:09	17:40:04	174170	62e199458482518274623771	124296744	1	practice_z	5	practice_z	29	stimuli_distractor_diamondtriangles.svg	stimuli_distractor_trianglediamonds.svg	14	no	0	1	2000
6.6.1	win	2022-12-15	17:37:09	17:40:04	174170	62e199458482518274623771	124296744	1	practice_z	5	advance_on_keypress_ZEE	30	stimuli_distractor_diamondtriangles.svg	stimuli_distractor_trianglediamonds.svg	14	no	57	0	939
6.6.1	win	2022-12-15	17:37:09	17:40:08	177463	62e199458482518274623771	124296744	1	practice_z	5	practice_z	31	stimuli_distractor_trianglediamonds.svg	stimuli_target_squarediamonds.svg	11	yes	44	1	706
6.6.1	win	2022-12-15	17:37:09	17:40:08	177463	62e199458482518274623771	124296744	1	practice_z	5	advance_on_keypress_ZEE	32	stimuli_distractor_trianglediamonds.svg	stimuli_target_squarediamonds.svg	11	yes	57	0	468
6.6.1	win	2022-12-15	17:37:09	17:40:14	184012	62e199458482518274623771	124296744	1	main_z	7	main_z	1	stimuli_distractor_diamondtriangles.svg	stimuli_distractor_diamondtriangles.svg	40	no	0	1	2000
6.6.1	win	2022-12-15	17:37:09	17:40:14	184012	62e199458482518274623771	124296744	1	main_z	7	advance_on_keypress_ZEE	2	stimuli_distractor_diamondtriangles.svg	stimuli_distractor_diamondtriangles.svg	40	no	57	0	694
6.6.1	win	2022-12-15	17:37:09	17:40:18	187349	62e199458482518274623771	124296744	1	main_z	7	main_z	3	stimuli_distractor_trianglediamonds.svg	stimuli_distractor_trianglediamonds.svg	33	no	0	1	2000
6.6.1	win	2022-12-15	17:37:09	17:40:18	187349	62e199458482518274623771	124296744	1	main_z	7	advance_on_keypress_ZEE	4	stimuli_distractor_trianglediamonds.svg	stimuli_distractor_trianglediamonds.svg	33	no	57	0	488
6.6.1	win	2022-12-15	17:37:09	17:40:20	189331	62e199458482518274623771	124296744	1	main_z	7	main_z	5	stimuli_distractor_trianglediamonds.svg	stimuli_target_trianglecircles.svg	25	yes	44	1	862
6.6.1	win	2022-12-15	17:37:09	17:40:20	189331	62e199458482518274623771	124296744	1	main_z	7	advance_on_keypress_ZEE	6	stimuli_distractor_trianglediamonds.svg	stimuli_target_trianglecircles.svg	25	yes	57	0	1824
6.6.1	win	2022-12-15	17:37:09	17:40:23	192405	62e199458482518274623771	124296744	1	main_z	7	main_z	7	stimuli_target_trianglesquares.svg	stimuli_distractor_trianglediamonds.svg	18	yes	44	1	616
6.6.1	win	2022-12-15	17:37:09	17:40:23	192405	62e199458482518274623771	124296744	1	main_z	7	advance_on_keypress_ZEE	8	stimuli_target_trianglesquares.svg	stimuli_distractor_trianglediamonds.svg	18	yes	57	0	1749
6.6.1	win	2022-12-15	17:37:09	17:40:25	195241	62e199458482518274623771	124296744	1	main_z	7	main_z	9	stimuli_distractor_diamondtriangles.svg	stimuli_target_squarediamonds.svg	16	yes	44	1	432
6.6.1	win	2022-12-15	17:37:09	17:40:25	195241	62e199458482518274623771	124296744	1	main_z	7	advance_on_keypress_ZEE	10	stimuli_distractor_diamondtriangles.svg	stimuli_target_squarediamonds.svg	16	yes	57	0	1269
6.6.1	win	2022-12-15	17:37:09	17:40:28	198144	62e199458482518274623771	124296744	1	main_z	7	main_z	11	stimuli_target_diamondcircles.svg	stimuli_distractor_trianglediamonds.svg	19	yes	44	1	983
6.6.1	win	2022-12-15	17:37:09	17:40:28	198144	62e199458482518274623771	124296744	1	main_z	7	advance_on_keypress_ZEE	12	stimuli_target_diamondcircles.svg	stimuli_distractor_trianglediamonds.svg	19	yes	57	0	1130
6.6.1	win	2022-12-15	17:37:09	17:40:31	200636	62e199458482518274623771	124296744	1	main_z	7	main_z	13	stimuli_target_squarediamonds.svg	stimuli_distractor_trianglediamonds.svg	4	yes	44	1	722
6.6.1	win	2022-12-15	17:37:09	17:40:31	200636	62e199458482518274623771	124296744	1	main_z	7	advance_on_keypress_ZEE	14	stimuli_target_squarediamonds.svg	stimuli_distractor_trianglediamonds.svg	4	yes	57	0	730
6.6.1	win	2022-12-15	17:37:09	17:40:33	202678	62e199458482518274623771	124296744	1	main_z	7	main_z	15	stimuli_distractor_trianglediamonds.svg	stimuli_target_squaretriangles.svg	11	yes	44	1	679
6.6.1	win	2022-12-15	17:37:09	17:40:33	202678	62e199458482518274623771	124296744	1	main_z	7	advance_on_keypress_ZEE	16	stimuli_distractor_trianglediamonds.svg	stimuli_target_squaretriangles.svg	11	yes	57	0	593
6.6.1	win	2022-12-15	17:37:09	17:40:35	204418	62e199458482518274623771	124296744	1	main_z	7	main_z	17	stimuli_distractor_trianglediamonds.svg	stimuli_target_circlediamonds.svg	10	yes	44	1	515
6.6.1	win	2022-12-15	17:37:09	17:40:35	204418	62e199458482518274623771	124296744	1	main_z	7	advance_on_keypress_ZEE	18	stimuli_distractor_trianglediamonds.svg	stimuli_target_circlediamonds.svg	10	yes	57	0	551
6.6.1	win	2022-12-15	17:37:09	17:40:36	206051	62e199458482518274623771	124296744	1	main_z	7	main_z	19	stimuli_distractor_diamondtriangles.svg	stimuli_target_circlediamonds.svg	14	yes	44	1	431
6.6.1	win	2022-12-15	17:37:09	17:40:36	206051	62e199458482518274623771	124296744	1	main_z	7	advance_on_keypress_ZEE	20	stimuli_distractor_diamondtriangles.svg	stimuli_target_circlediamonds.svg	14	yes	57	0	513
6.6.1	win	2022-12-15	17:37:09	17:40:38	207794	62e199458482518274623771	124296744	1	main_z	7	main_z	21	stimuli_target_diamondcircles.svg	stimuli_distractor_diamondtriangles.svg	23	yes	44	1	606
6.6.1	win	2022-12-15	17:37:09	17:40:38	207794	62e199458482518274623771	124296744	1	main_z	7	advance_on_keypress_ZEE	22	stimuli_target_diamondcircles.svg	stimuli_distractor_diamondtriangles.svg	23	yes	57	0	447
6.6.1	win	2022-12-15	17:37:09	17:40:40	209361	62e199458482518274623771	124296744	1	main_z	7	main_z	23	stimuli_distractor_trianglediamonds.svg	stimuli_target_circletriangles.svg	9	yes	44	1	471
6.6.1	win	2022-12-15	17:37:09	17:40:40	209361	62e199458482518274623771	124296744	1	main_z	7	advance_on_keypress_ZEE	24	stimuli_distractor_trianglediamonds.svg	stimuli_target_circletriangles.svg	9	yes	57	0	375
6.6.1	win	2022-12-15	17:37:09	17:40:43	212374	62e199458482518274623771	124296744	1	main_z	7	main_z	25	stimuli_distractor_diamondtriangles.svg	stimuli_distractor_trianglediamonds.svg	37	no	0	1	2000
6.6.1	win	2022-12-15	17:37:09	17:40:43	212374	62e199458482518274623771	124296744	1	main_z	7	advance_on_keypress_ZEE	26	stimuli_distractor_diamondtriangles.svg	stimuli_distractor_trianglediamonds.svg	37	no	57	0	713
6.6.1	win	2022-12-15	17:37:09	17:40:44	214177	62e199458482518274623771	124296744	1	main_z	7	main_z	27	stimuli_distractor_trianglediamonds.svg	stimuli_target_diamondcircles.svg	27	yes	44	1	467
6.6.1	win	2022-12-15	17:37:09	17:40:44	214177	62e199458482518274623771	124296744	1	main_z	7	advance_on_keypress_ZEE	28	stimuli_distractor_trianglediamonds.svg	stimuli_target_diamondcircles.svg	27	yes	57	0	463
6.6.1	win	2022-12-15	17:37:09	17:40:47	216291	62e199458482518274623771	124296744	1	main_z	7	main_z	29	stimuli_target_trianglesquares.svg	stimuli_distractor_diamondtriangles.svg	22	yes	44	1	1013
6.6.1	win	2022-12-15	17:37:09	17:40:47	216291	62e199458482518274623771	124296744	1	main_z	7	advance_on_keypress_ZEE	30	stimuli_target_trianglesquares.svg	stimuli_distractor_diamondtriangles.svg	22	yes	57	0	708
6.6.1	win	2022-12-15	17:37:09	17:40:50	219631	62e199458482518274623771	124296744	1	main_z	7	main_z	31	stimuli_target_circletriangles.svg	stimuli_distractor_diamondtriangles.svg	5	yes	0	0	2000
6.6.1	win	2022-12-15	17:37:09	17:40:50	219631	62e199458482518274623771	124296744	1	main_z	7	advance_on_keypress_ZEE	32	stimuli_target_circletriangles.svg	stimuli_distractor_diamondtriangles.svg	5	yes	57	0	1065
6.6.1	win	2022-12-15	17:37:09	17:40:52	221854	62e199458482518274623771	124296744	1	main_z	7	main_z	33	stimuli_distractor_trianglediamonds.svg	stimuli_target_diamondsquares.svg	28	yes	44	1	536
6.6.1	win	2022-12-15	17:37:09	17:40:52	221854	62e199458482518274623771	124296744	1	main_z	7	advance_on_keypress_ZEE	34	stimuli_distractor_trianglediamonds.svg	stimuli_target_diamondsquares.svg	28	yes	57	0	699
6.6.1	win	2022-12-15	17:37:09	17:40:54	223720	62e199458482518274623771	124296744	1	main_z	7	main_z	35	stimuli_distractor_diamondtriangles.svg	stimuli_target_diamondcircles.svg	31	yes	44	1	517
6.6.1	win	2022-12-15	17:37:09	17:40:54	223720	62e199458482518274623771	124296744	1	main_z	7	advance_on_keypress_ZEE	36	stimuli_distractor_diamondtriangles.svg	stimuli_target_diamondcircles.svg	31	yes	57	0	710
6.6.1	win	2022-12-15	17:37:09	17:40:57	227072	62e199458482518274623771	124296744	1	main_z	7	main_z	37	stimuli_distractor_trianglediamonds.svg	stimuli_distractor_trianglediamonds.svg	34	no	0	1	2000
6.6.1	win	2022-12-15	17:37:09	17:40:57	227072	62e199458482518274623771	124296744	1	main_z	7	advance_on_keypress_ZEE	38	stimuli_distractor_trianglediamonds.svg	stimuli_distractor_trianglediamonds.svg	34	no	57	0	862
6.6.1	win	2022-12-15	17:37:09	17:41:01	230559	62e199458482518274623771	124296744	1	main_z	7	main_z	39	stimuli_distractor_diamondtriangles.svg	stimuli_distractor_diamondtriangles.svg	39	no	0	1	2000
6.6.1	win	2022-12-15	17:37:09	17:41:01	230559	62e199458482518274623771	124296744	1	main_z	7	advance_on_keypress_ZEE	40	stimuli_distractor_diamondtriangles.svg	stimuli_distractor_diamondtriangles.svg	39	no	57	0	621
6.6.1	win	2022-12-15	17:37:09	17:41:03	232701	62e199458482518274623771	124296744	1	main_z	7	main_z	41	stimuli_target_circlediamonds.svg	stimuli_distractor_trianglediamonds.svg	2	yes	44	1	890
6.6.1	win	2022-12-15	17:37:09	17:41:03	232701	62e199458482518274623771	124296744	1	main_z	7	advance_on_keypress_ZEE	42	stimuli_target_circlediamonds.svg	stimuli_distractor_trianglediamonds.svg	2	yes	57	0	738
6.6.1	win	2022-12-15	17:37:09	17:41:05	234603	62e199458482518274623771	124296744	1	main_z	7	main_z	43	stimuli_distractor_diamondtriangles.svg	stimuli_target_circletriangles.svg	13	yes	44	1	523
6.6.1	win	2022-12-15	17:37:09	17:41:05	234603	62e199458482518274623771	124296744	1	main_z	7	advance_on_keypress_ZEE	44	stimuli_distractor_diamondtriangles.svg	stimuli_target_circletriangles.svg	13	yes	57	0	491
6.6.1	win	2022-12-15	17:37:09	17:41:07	236254	62e199458482518274623771	124296744	1	main_z	7	main_z	45	stimuli_target_squaretriangles.svg	stimuli_distractor_trianglediamonds.svg	3	yes	44	1	522
6.6.1	win	2022-12-15	17:37:09	17:41:07	236254	62e199458482518274623771	124296744	1	main_z	7	advance_on_keypress_ZEE	46	stimuli_target_squaretriangles.svg	stimuli_distractor_trianglediamonds.svg	3	yes	57	0	399
6.6.1	win	2022-12-15	17:37:09	17:41:08	237968	62e199458482518274623771	124296744	1	main_z	7	main_z	47	stimuli_distractor_diamondtriangles.svg	stimuli_target_diamondsquares.svg	32	yes	44	1	668
6.6.1	win	2022-12-15	17:37:09	17:41:08	237968	62e199458482518274623771	124296744	1	main_z	7	advance_on_keypress_ZEE	48	stimuli_distractor_diamondtriangles.svg	stimuli_target_diamondsquares.svg	32	yes	57	0	546
6.6.1	win	2022-12-15	17:37:09	17:41:11	240429	62e199458482518274623771	124296744	1	main_z	7	main_z	49	stimuli_target_trianglecircles.svg	stimuli_distractor_diamondtriangles.svg	21	yes	44	1	1277
6.6.1	win	2022-12-15	17:37:09	17:41:11	240429	62e199458482518274623771	124296744	1	main_z	7	advance_on_keypress_ZEE	50	stimuli_target_trianglecircles.svg	stimuli_distractor_diamondtriangles.svg	21	yes	57	0	399
6.6.1	win	2022-12-15	17:37:09	17:41:12	242171	62e199458482518274623771	124296744	1	main_z	7	main_z	51	stimuli_distractor_diamondtriangles.svg	stimuli_target_trianglesquares.svg	30	yes	44	1	700
6.6.1	win	2022-12-15	17:37:09	17:41:12	242171	62e199458482518274623771	124296744	1	main_z	7	advance_on_keypress_ZEE	52	stimuli_distractor_diamondtriangles.svg	stimuli_target_trianglesquares.svg	30	yes	57	0	346
6.6.1	win	2022-12-15	17:37:09	17:41:14	243866	62e199458482518274623771	124296744	1	main_z	7	main_z	53	stimuli_target_diamondsquares.svg	stimuli_distractor_diamondtriangles.svg	24	yes	44	1	710
6.6.1	win	2022-12-15	17:37:09	17:41:14	243866	62e199458482518274623771	124296744	1	main_z	7	advance_on_keypress_ZEE	54	stimuli_target_diamondsquares.svg	stimuli_distractor_diamondtriangles.svg	24	yes	57	0	340
6.6.1	win	2022-12-15	17:37:09	17:41:16	245861	62e199458482518274623771	124296744	1	main_z	7	main_z	55	stimuli_distractor_diamondtriangles.svg	stimuli_target_trianglecircles.svg	29	yes	44	1	1019
6.6.1	win	2022-12-15	17:37:09	17:41:16	245861	62e199458482518274623771	124296744	1	main_z	7	advance_on_keypress_ZEE	56	stimuli_distractor_diamondtriangles.svg	stimuli_target_trianglecircles.svg	29	yes	57	0	304
6.6.1	win	2022-12-15	17:37:09	17:41:18	247351	62e199458482518274623771	124296744	1	main_z	7	main_z	57	stimuli_target_squaretriangles.svg	stimuli_distractor_diamondtriangles.svg	7	yes	44	1	542
6.6.1	win	2022-12-15	17:37:09	17:41:18	247351	62e199458482518274623771	124296744	1	main_z	7	advance_on_keypress_ZEE	58	stimuli_target_squaretriangles.svg	stimuli_distractor_diamondtriangles.svg	7	yes	57	0	290
6.6.1	win	2022-12-15	17:37:09	17:41:19	249130	62e199458482518274623771	124296744	1	main_z	7	main_z	59	stimuli_distractor_trianglediamonds.svg	stimuli_target_trianglesquares.svg	26	yes	44	1	852
6.6.1	win	2022-12-15	17:37:09	17:41:19	249130	62e199458482518274623771	124296744	1	main_z	7	advance_on_keypress_ZEE	60	stimuli_distractor_trianglediamonds.svg	stimuli_target_trianglesquares.svg	26	yes	57	0	391
6.6.1	win	2022-12-15	17:37:09	17:41:21	251032	62e199458482518274623771	124296744	1	main_z	7	main_z	61	stimuli_target_squarediamonds.svg	stimuli_distractor_diamondtriangles.svg	8	yes	44	1	869
6.6.1	win	2022-12-15	17:37:09	17:41:21	251032	62e199458482518274623771	124296744	1	main_z	7	advance_on_keypress_ZEE	62	stimuli_target_squarediamonds.svg	stimuli_distractor_diamondtriangles.svg	8	yes	57	0	268
6.6.1	win	2022-12-15	17:37:09	17:41:24	253948	62e199458482518274623771	124296744	1	main_z	7	main_z	63	stimuli_distractor_trianglediamonds.svg	stimuli_distractor_diamondtriangles.svg	35	no	0	1	2000
6.6.1	win	2022-12-15	17:37:09	17:41:24	253948	62e199458482518274623771	124296744	1	main_z	7	advance_on_keypress_ZEE	64	stimuli_distractor_trianglediamonds.svg	stimuli_distractor_diamondtriangles.svg	35	no	57	0	790
6.6.1	win	2022-12-15	17:37:09	17:41:26	256017	62e199458482518274623771	124296744	1	main_z	7	main_z	65	stimuli_target_circlediamonds.svg	stimuli_distractor_diamondtriangles.svg	6	yes	44	1	632
6.6.1	win	2022-12-15	17:37:09	17:41:26	256017	62e199458482518274623771	124296744	1	main_z	7	advance_on_keypress_ZEE	66	stimuli_target_circlediamonds.svg	stimuli_distractor_diamondtriangles.svg	6	yes	57	0	309
6.6.1	win	2022-12-15	17:37:09	17:41:28	257556	62e199458482518274623771	124296744	1	main_z	7	main_z	67	stimuli_distractor_trianglediamonds.svg	stimuli_target_squarediamonds.svg	12	yes	44	1	603
6.6.1	win	2022-12-15	17:37:09	17:41:28	257556	62e199458482518274623771	124296744	1	main_z	7	advance_on_keypress_ZEE	68	stimuli_distractor_trianglediamonds.svg	stimuli_target_squarediamonds.svg	12	yes	57	0	229
6.6.1	win	2022-12-15	17:37:09	17:41:29	259139	62e199458482518274623771	124296744	1	main_z	7	main_z	69	stimuli_distractor_diamondtriangles.svg	stimuli_target_squaretriangles.svg	15	yes	44	1	718
6.6.1	win	2022-12-15	17:37:09	17:41:29	259139	62e199458482518274623771	124296744	1	main_z	7	advance_on_keypress_ZEE	70	stimuli_distractor_diamondtriangles.svg	stimuli_target_squaretriangles.svg	15	yes	57	0	283
6.6.1	win	2022-12-15	17:37:09	17:41:31	260814	62e199458482518274623771	124296744	1	main_z	7	main_z	71	stimuli_target_diamondsquares.svg	stimuli_distractor_trianglediamonds.svg	20	yes	44	1	740
6.6.1	win	2022-12-15	17:37:09	17:41:31	260814	62e199458482518274623771	124296744	1	main_z	7	advance_on_keypress_ZEE	72	stimuli_target_diamondsquares.svg	stimuli_distractor_trianglediamonds.svg	20	yes	57	0	695
6.6.1	win	2022-12-15	17:37:09	17:41:34	264142	62e199458482518274623771	124296744	1	main_z	7	main_z	73	stimuli_distractor_diamondtriangles.svg	stimuli_distractor_trianglediamonds.svg	38	no	0	1	2000
6.6.1	win	2022-12-15	17:37:09	17:41:34	264142	62e199458482518274623771	124296744	1	main_z	7	advance_on_keypress_ZEE	74	stimuli_distractor_diamondtriangles.svg	stimuli_distractor_trianglediamonds.svg	38	no	57	0	629
6.6.1	win	2022-12-15	17:37:09	17:41:36	265929	62e199458482518274623771	124296744	1	main_z	7	main_z	75	stimuli_target_trianglecircles.svg	stimuli_distractor_trianglediamonds.svg	17	yes	44	1	503
6.6.1	win	2022-12-15	17:37:09	17:41:36	265929	62e199458482518274623771	124296744	1	main_z	7	advance_on_keypress_ZEE	76	stimuli_target_trianglecircles.svg	stimuli_distractor_trianglediamonds.svg	17	yes	57	0	348
6.6.1	win	2022-12-15	17:37:09	17:41:39	268930	62e199458482518274623771	124296744	1	main_z	7	main_z	77	stimuli_distractor_trianglediamonds.svg	stimuli_distractor_diamondtriangles.svg	36	no	0	1	2000
6.6.1	win	2022-12-15	17:37:09	17:41:39	268930	62e199458482518274623771	124296744	1	main_z	7	advance_on_keypress_ZEE	78	stimuli_distractor_trianglediamonds.svg	stimuli_distractor_diamondtriangles.svg	36	no	57	0	618
6.6.1	win	2022-12-15	17:37:09	17:41:41	270652	62e199458482518274623771	124296744	1	main_z	7	main_z	79	stimuli_target_circletriangles.svg	stimuli_distractor_trianglediamonds.svg	1	yes	44	1	452
6.6.1	win	2022-12-15	17:37:09	17:41:41	270652	62e199458482518274623771	124296744	1	main_z	7	advance_on_keypress_ZEE	80	stimuli_target_circletriangles.svg	stimuli_distractor_trianglediamonds.svg	1	yes	57	0	320
6.6.1	win	2022-12-15	17:37:09	17:41:42	272115	62e199458482518274623771	124296744	1	main_z	7	main_z	81	stimuli_target_circletriangles.svg	stimuli_distractor_diamondtriangles.svg	5	yes	44	1	497
6.6.1	win	2022-12-15	17:37:09	17:41:42	272115	62e199458482518274623771	124296744	1	main_z	7	advance_on_keypress_ZEE	82	stimuli_target_circletriangles.svg	stimuli_distractor_diamondtriangles.svg	5	yes	57	0	766
6.6.1	win	2022-12-15	17:37:09	17:41:45	274667	62e199458482518274623771	124296744	1	main_z	7	main_z	83	stimuli_target_trianglesquares.svg	stimuli_distractor_diamondtriangles.svg	22	yes	44	1	1147
6.6.1	win	2022-12-15	17:37:09	17:41:45	274667	62e199458482518274623771	124296744	1	main_z	7	advance_on_keypress_ZEE	84	stimuli_target_trianglesquares.svg	stimuli_distractor_diamondtriangles.svg	22	yes	57	0	957
6.6.1	win	2022-12-15	17:37:09	17:41:47	276681	62e199458482518274623771	124296744	1	main_z	7	main_z	85	stimuli_target_trianglecircles.svg	stimuli_distractor_trianglediamonds.svg	17	yes	44	1	425
6.6.1	win	2022-12-15	17:37:09	17:41:47	276681	62e199458482518274623771	124296744	1	main_z	7	advance_on_keypress_ZEE	86	stimuli_target_trianglecircles.svg	stimuli_distractor_trianglediamonds.svg	17	yes	57	0	330
6.6.1	win	2022-12-15	17:37:09	17:41:48	278041	62e199458482518274623771	124296744	1	main_z	7	main_z	87	stimuli_target_trianglecircles.svg	stimuli_distractor_diamondtriangles.svg	21	yes	44	1	400
6.6.1	win	2022-12-15	17:37:09	17:41:48	278041	62e199458482518274623771	124296744	1	main_z	7	advance_on_keypress_ZEE	88	stimuli_target_trianglecircles.svg	stimuli_distractor_diamondtriangles.svg	21	yes	57	0	274
6.6.1	win	2022-12-15	17:37:09	17:41:50	280015	62e199458482518274623771	124296744	1	main_z	7	main_z	89	stimuli_distractor_diamondtriangles.svg	stimuli_target_circlediamonds.svg	14	yes	44	1	1056
6.6.1	win	2022-12-15	17:37:09	17:41:50	280015	62e199458482518274623771	124296744	1	main_z	7	advance_on_keypress_ZEE	90	stimuli_distractor_diamondtriangles.svg	stimuli_target_circlediamonds.svg	14	yes	57	0	320
6.6.1	win	2022-12-15	17:37:09	17:41:52	281694	62e199458482518274623771	124296744	1	main_z	7	main_z	91	stimuli_distractor_trianglediamonds.svg	stimuli_target_diamondsquares.svg	28	yes	44	1	716
6.6.1	win	2022-12-15	17:37:09	17:41:52	281694	62e199458482518274623771	124296744	1	main_z	7	advance_on_keypress_ZEE	92	stimuli_distractor_trianglediamonds.svg	stimuli_target_diamondsquares.svg	28	yes	57	0	245
6.6.1	win	2022-12-15	17:37:09	17:41:53	283197	62e199458482518274623771	124296744	1	main_z	7	main_z	93	stimuli_distractor_trianglediamonds.svg	stimuli_target_squaretriangles.svg	11	yes	44	1	618
6.6.1	win	2022-12-15	17:37:09	17:41:53	283197	62e199458482518274623771	124296744	1	main_z	7	advance_on_keypress_ZEE	94	stimuli_distractor_trianglediamonds.svg	stimuli_target_squaretriangles.svg	11	yes	57	0	267
6.6.1	win	2022-12-15	17:37:09	17:41:55	284908	62e199458482518274623771	124296744	1	main_z	7	main_z	95	stimuli_distractor_trianglediamonds.svg	stimuli_distractor_diamondtriangles.svg	35	no	44	0	794
6.6.1	win	2022-12-15	17:37:09	17:41:55	284908	62e199458482518274623771	124296744	1	main_z	7	advance_on_keypress_ZEE	96	stimuli_distractor_trianglediamonds.svg	stimuli_distractor_diamondtriangles.svg	35	no	57	0	731
6.6.1	win	2022-12-15	17:37:09	17:41:57	286965	62e199458482518274623771	124296744	1	main_z	7	main_z	97	stimuli_distractor_trianglediamonds.svg	stimuli_target_diamondcircles.svg	27	yes	44	1	699
6.6.1	win	2022-12-15	17:37:09	17:41:57	286965	62e199458482518274623771	124296744	1	main_z	7	advance_on_keypress_ZEE	98	stimuli_distractor_trianglediamonds.svg	stimuli_target_diamondcircles.svg	27	yes	57	0	281
6.6.1	win	2022-12-15	17:37:09	17:41:59	288485	62e199458482518274623771	124296744	1	main_z	7	main_z	99	stimuli_distractor_diamondtriangles.svg	stimuli_target_squarediamonds.svg	16	yes	44	1	584
6.6.1	win	2022-12-15	17:37:09	17:41:59	288485	62e199458482518274623771	124296744	1	main_z	7	advance_on_keypress_ZEE	100	stimuli_distractor_diamondtriangles.svg	stimuli_target_squarediamonds.svg	16	yes	57	0	235
6.6.1	win	2022-12-15	17:37:09	17:42:00	289956	62e199458482518274623771	124296744	1	main_z	7	main_z	101	stimuli_target_circlediamonds.svg	stimuli_distractor_diamondtriangles.svg	6	yes	44	1	587
6.6.1	win	2022-12-15	17:37:09	17:42:00	289956	62e199458482518274623771	124296744	1	main_z	7	advance_on_keypress_ZEE	102	stimuli_target_circlediamonds.svg	stimuli_distractor_diamondtriangles.svg	6	yes	57	0	278
6.6.1	win	2022-12-15	17:37:09	17:42:02	291511	62e199458482518274623771	124296744	1	main_z	7	main_z	103	stimuli_distractor_trianglediamonds.svg	stimuli_target_circlediamonds.svg	10	yes	44	1	640
6.6.1	win	2022-12-15	17:37:09	17:42:02	291511	62e199458482518274623771	124296744	1	main_z	7	advance_on_keypress_ZEE	104	stimuli_distractor_trianglediamonds.svg	stimuli_target_circlediamonds.svg	10	yes	57	0	197
6.6.1	win	2022-12-15	17:37:09	17:42:04	293469	62e199458482518274623771	124296744	1	main_z	7	main_z	105	stimuli_target_squaretriangles.svg	stimuli_distractor_trianglediamonds.svg	3	yes	44	1	1130
6.6.1	win	2022-12-15	17:37:09	17:42:04	293469	62e199458482518274623771	124296744	1	main_z	7	advance_on_keypress_ZEE	106	stimuli_target_squaretriangles.svg	stimuli_distractor_trianglediamonds.svg	3	yes	57	0	283
6.6.1	win	2022-12-15	17:37:09	17:42:05	295112	62e199458482518274623771	124296744	1	main_z	7	main_z	107	stimuli_target_diamondcircles.svg	stimuli_distractor_trianglediamonds.svg	19	yes	44	1	721
6.6.1	win	2022-12-15	17:37:09	17:42:05	295112	62e199458482518274623771	124296744	1	main_z	7	advance_on_keypress_ZEE	108	stimuli_target_diamondcircles.svg	stimuli_distractor_trianglediamonds.svg	19	yes	57	0	394
6.6.1	win	2022-12-15	17:37:09	17:42:08	298142	62e199458482518274623771	124296744	1	main_z	7	main_z	109	stimuli_target_squaretriangles.svg	stimuli_distractor_diamondtriangles.svg	7	yes	0	0	2000
6.6.1	win	2022-12-15	17:37:09	17:42:08	298142	62e199458482518274623771	124296744	1	main_z	7	advance_on_keypress_ZEE	110	stimuli_target_squaretriangles.svg	stimuli_distractor_diamondtriangles.svg	7	yes	57	0	425
6.6.1	win	2022-12-15	17:37:09	17:42:10	299886	62e199458482518274623771	124296744	1	main_z	7	main_z	111	stimuli_target_circletriangles.svg	stimuli_distractor_trianglediamonds.svg	1	yes	44	1	690
6.6.1	win	2022-12-15	17:37:09	17:42:10	299886	62e199458482518274623771	124296744	1	main_z	7	advance_on_keypress_ZEE	112	stimuli_target_circletriangles.svg	stimuli_distractor_trianglediamonds.svg	1	yes	57	0	284
6.6.1	win	2022-12-15	17:37:09	17:42:13	302813	62e199458482518274623771	124296744	1	main_z	7	main_z	113	stimuli_distractor_diamondtriangles.svg	stimuli_distractor_trianglediamonds.svg	37	no	0	1	2000
6.6.1	win	2022-12-15	17:37:09	17:42:13	302813	62e199458482518274623771	124296744	1	main_z	7	advance_on_keypress_ZEE	114	stimuli_distractor_diamondtriangles.svg	stimuli_distractor_trianglediamonds.svg	37	no	57	0	607
6.6.1	win	2022-12-15	17:37:09	17:42:15	304590	62e199458482518274623771	124296744	1	main_z	7	main_z	115	stimuli_distractor_diamondtriangles.svg	stimuli_target_squaretriangles.svg	15	yes	44	1	541
6.6.1	win	2022-12-15	17:37:09	17:42:15	304590	62e199458482518274623771	124296744	1	main_z	7	advance_on_keypress_ZEE	116	stimuli_distractor_diamondtriangles.svg	stimuli_target_squaretriangles.svg	15	yes	57	0	301
6.6.1	win	2022-12-15	17:37:09	17:42:18	307535	62e199458482518274623771	124296744	1	main_z	7	main_z	117	stimuli_distractor_trianglediamonds.svg	stimuli_distractor_trianglediamonds.svg	33	no	0	1	2000
6.6.1	win	2022-12-15	17:37:09	17:42:18	307535	62e199458482518274623771	124296744	1	main_z	7	advance_on_keypress_ZEE	118	stimuli_distractor_trianglediamonds.svg	stimuli_distractor_trianglediamonds.svg	33	no	57	0	531
6.6.1	win	2022-12-15	17:37:09	17:42:20	309480	62e199458482518274623771	124296744	1	main_z	7	main_z	119	stimuli_target_trianglesquares.svg	stimuli_distractor_trianglediamonds.svg	18	yes	44	1	792
6.6.1	win	2022-12-15	17:37:09	17:42:20	309480	62e199458482518274623771	124296744	1	main_z	7	advance_on_keypress_ZEE	120	stimuli_target_trianglesquares.svg	stimuli_distractor_trianglediamonds.svg	18	yes	57	0	350
6.6.1	win	2022-12-15	17:37:09	17:42:22	311506	62e199458482518274623771	124296744	1	main_z	7	main_z	121	stimuli_distractor_diamondtriangles.svg	stimuli_target_diamondsquares.svg	32	yes	44	1	1033
6.6.1	win	2022-12-15	17:37:09	17:42:22	311506	62e199458482518274623771	124296744	1	main_z	7	advance_on_keypress_ZEE	122	stimuli_distractor_diamondtriangles.svg	stimuli_target_diamondsquares.svg	32	yes	57	0	238
6.6.1	win	2022-12-15	17:37:09	17:42:23	313097	62e199458482518274623771	124296744	1	main_z	7	main_z	123	stimuli_target_diamondsquares.svg	stimuli_distractor_trianglediamonds.svg	20	yes	44	1	722
6.6.1	win	2022-12-15	17:37:09	17:42:23	313097	62e199458482518274623771	124296744	1	main_z	7	advance_on_keypress_ZEE	124	stimuli_target_diamondsquares.svg	stimuli_distractor_trianglediamonds.svg	20	yes	57	0	223
6.6.1	win	2022-12-15	17:37:09	17:42:25	314627	62e199458482518274623771	124296744	1	main_z	7	main_z	125	stimuli_distractor_trianglediamonds.svg	stimuli_target_trianglesquares.svg	26	yes	44	1	668
6.6.1	win	2022-12-15	17:37:09	17:42:25	314627	62e199458482518274623771	124296744	1	main_z	7	advance_on_keypress_ZEE	126	stimuli_distractor_trianglediamonds.svg	stimuli_target_trianglesquares.svg	26	yes	57	0	199
6.6.1	win	2022-12-15	17:37:09	17:42:26	316210	62e199458482518274623771	124296744	1	main_z	7	main_z	127	stimuli_target_diamondcircles.svg	stimuli_distractor_diamondtriangles.svg	23	yes	44	1	733
6.6.1	win	2022-12-15	17:37:09	17:42:26	316210	62e199458482518274623771	124296744	1	main_z	7	advance_on_keypress_ZEE	128	stimuli_target_diamondcircles.svg	stimuli_distractor_diamondtriangles.svg	23	yes	57	0	173
6.6.1	win	2022-12-15	17:37:09	17:42:29	318707	62e199458482518274623771	124296744	1	main_z	7	main_z	129	stimuli_target_squarediamonds.svg	stimuli_distractor_trianglediamonds.svg	4	yes	44	1	1678
6.6.1	win	2022-12-15	17:37:09	17:42:29	318707	62e199458482518274623771	124296744	1	main_z	7	advance_on_keypress_ZEE	130	stimuli_target_squarediamonds.svg	stimuli_distractor_trianglediamonds.svg	4	yes	57	0	782
6.6.1	win	2022-12-15	17:37:09	17:42:32	322133	62e199458482518274623771	124296744	1	main_z	7	main_z	131	stimuli_distractor_diamondtriangles.svg	stimuli_distractor_diamondtriangles.svg	40	no	0	1	2000
6.6.1	win	2022-12-15	17:37:09	17:42:32	322133	62e199458482518274623771	124296744	1	main_z	7	advance_on_keypress_ZEE	132	stimuli_distractor_diamondtriangles.svg	stimuli_distractor_diamondtriangles.svg	40	no	57	0	373
6.6.1	win	2022-12-15	17:37:09	17:42:34	323751	62e199458482518274623771	124296744	1	main_z	7	main_z	133	stimuli_distractor_trianglediamonds.svg	stimuli_target_circletriangles.svg	9	yes	44	1	616
6.6.1	win	2022-12-15	17:37:09	17:42:34	323751	62e199458482518274623771	124296744	1	main_z	7	advance_on_keypress_ZEE	134	stimuli_distractor_trianglediamonds.svg	stimuli_target_circletriangles.svg	9	yes	57	0	325
6.6.1	win	2022-12-15	17:37:09	17:42:36	325294	62e199458482518274623771	124296744	1	main_z	7	main_z	135	stimuli_distractor_diamondtriangles.svg	stimuli_target_circletriangles.svg	13	yes	44	1	574
6.6.1	win	2022-12-15	17:37:09	17:42:36	325294	62e199458482518274623771	124296744	1	main_z	7	advance_on_keypress_ZEE	136	stimuli_distractor_diamondtriangles.svg	stimuli_target_circletriangles.svg	13	yes	57	0	286
6.6.1	win	2022-12-15	17:37:09	17:42:37	326851	62e199458482518274623771	124296744	1	main_z	7	main_z	137	stimuli_target_diamondsquares.svg	stimuli_distractor_diamondtriangles.svg	24	yes	44	1	629
6.6.1	win	2022-12-15	17:37:09	17:42:37	326851	62e199458482518274623771	124296744	1	main_z	7	advance_on_keypress_ZEE	138	stimuli_target_diamondsquares.svg	stimuli_distractor_diamondtriangles.svg	24	yes	57	0	277
6.6.1	win	2022-12-15	17:37:09	17:42:40	329605	62e199458482518274623771	124296744	1	main_z	7	main_z	139	stimuli_target_circlediamonds.svg	stimuli_distractor_trianglediamonds.svg	2	yes	44	1	1849
6.6.1	win	2022-12-15	17:37:09	17:42:40	329605	62e199458482518274623771	124296744	1	main_z	7	advance_on_keypress_ZEE	140	stimuli_target_circlediamonds.svg	stimuli_distractor_trianglediamonds.svg	2	yes	57	0	304
6.6.1	win	2022-12-15	17:37:09	17:42:42	331571	62e199458482518274623771	124296744	1	main_z	7	main_z	141	stimuli_distractor_trianglediamonds.svg	stimuli_target_trianglecircles.svg	25	yes	44	1	1029
6.6.1	win	2022-12-15	17:37:09	17:42:42	331571	62e199458482518274623771	124296744	1	main_z	7	advance_on_keypress_ZEE	142	stimuli_distractor_trianglediamonds.svg	stimuli_target_trianglecircles.svg	25	yes	57	0	238
6.6.1	win	2022-12-15	17:37:09	17:42:45	334445	62e199458482518274623771	124296744	1	main_z	7	main_z	143	stimuli_distractor_trianglediamonds.svg	stimuli_distractor_diamondtriangles.svg	36	no	0	1	2000
6.6.1	win	2022-12-15	17:37:09	17:42:45	334445	62e199458482518274623771	124296744	1	main_z	7	advance_on_keypress_ZEE	144	stimuli_distractor_trianglediamonds.svg	stimuli_distractor_diamondtriangles.svg	36	no	57	0	331
6.6.1	win	2022-12-15	17:37:09	17:42:48	337414	62e199458482518274623771	124296744	1	main_z	7	main_z	145	stimuli_distractor_diamondtriangles.svg	stimuli_distractor_diamondtriangles.svg	39	no	0	1	2000
6.6.1	win	2022-12-15	17:37:09	17:42:48	337414	62e199458482518274623771	124296744	1	main_z	7	advance_on_keypress_ZEE	146	stimuli_distractor_diamondtriangles.svg	stimuli_distractor_diamondtriangles.svg	39	no	57	0	504
6.6.1	win	2022-12-15	17:37:09	17:42:49	339112	62e199458482518274623771	124296744	1	main_z	7	main_z	147	stimuli_target_squarediamonds.svg	stimuli_distractor_diamondtriangles.svg	8	yes	44	1	562
6.6.1	win	2022-12-15	17:37:09	17:42:49	339112	62e199458482518274623771	124296744	1	main_z	7	advance_on_keypress_ZEE	148	stimuli_target_squarediamonds.svg	stimuli_distractor_diamondtriangles.svg	8	yes	57	0	270
6.6.1	win	2022-12-15	17:37:09	17:42:52	342019	62e199458482518274623771	124296744	1	main_z	7	main_z	149	stimuli_distractor_diamondtriangles.svg	stimuli_distractor_trianglediamonds.svg	38	no	0	1	2000
6.6.1	win	2022-12-15	17:37:09	17:42:52	342019	62e199458482518274623771	124296744	1	main_z	7	advance_on_keypress_ZEE	150	stimuli_distractor_diamondtriangles.svg	stimuli_distractor_trianglediamonds.svg	38	no	57	0	358
6.6.1	win	2022-12-15	17:37:09	17:42:54	343642	62e199458482518274623771	124296744	1	main_z	7	main_z	151	stimuli_distractor_diamondtriangles.svg	stimuli_target_trianglesquares.svg	30	yes	44	1	637
6.6.1	win	2022-12-15	17:37:09	17:42:54	343642	62e199458482518274623771	124296744	1	main_z	7	advance_on_keypress_ZEE	152	stimuli_distractor_diamondtriangles.svg	stimuli_target_trianglesquares.svg	30	yes	57	0	326
6.6.1	win	2022-12-15	17:37:09	17:42:57	346607	62e199458482518274623771	124296744	1	main_z	7	main_z	153	stimuli_distractor_trianglediamonds.svg	stimuli_distractor_trianglediamonds.svg	34	no	0	1	2000
6.6.1	win	2022-12-15	17:37:09	17:42:57	346607	62e199458482518274623771	124296744	1	main_z	7	advance_on_keypress_ZEE	154	stimuli_distractor_trianglediamonds.svg	stimuli_distractor_trianglediamonds.svg	34	no	57	0	395
6.6.1	win	2022-12-15	17:37:09	17:42:58	348080	62e199458482518274623771	124296744	1	main_z	7	main_z	155	stimuli_distractor_diamondtriangles.svg	stimuli_target_trianglecircles.svg	29	yes	44	1	454
6.6.1	win	2022-12-15	17:37:09	17:42:58	348080	62e199458482518274623771	124296744	1	main_z	7	advance_on_keypress_ZEE	156	stimuli_distractor_diamondtriangles.svg	stimuli_target_trianglecircles.svg	29	yes	57	0	278
6.6.1	win	2022-12-15	17:37:09	17:43:00	349512	62e199458482518274623771	124296744	1	main_z	7	main_z	157	stimuli_distractor_trianglediamonds.svg	stimuli_target_squarediamonds.svg	12	yes	44	1	502
6.6.1	win	2022-12-15	17:37:09	17:43:00	349512	62e199458482518274623771	124296744	1	main_z	7	advance_on_keypress_ZEE	158	stimuli_distractor_trianglediamonds.svg	stimuli_target_squarediamonds.svg	12	yes	57	0	212
6.6.1	win	2022-12-15	17:37:09	17:43:01	350824	62e199458482518274623771	124296744	1	main_z	7	main_z	159	stimuli_distractor_diamondtriangles.svg	stimuli_target_diamondcircles.svg	31	yes	44	1	462
6.6.1	win	2022-12-15	17:37:09	17:43:01	350824	62e199458482518274623771	124296744	1	main_z	7	advance_on_keypress_ZEE	160	stimuli_distractor_diamondtriangles.svg	stimuli_target_diamondcircles.svg	31	yes	57	0	290
6.6.1	win	2022-12-15	17:37:09	17:43:18	368026	62e199458482518274623771	124296744	1	practice_slash	9	practice_slash	1	stimuli_target_diamondsquares.svg	stimuli_distractor_diamondtriangles.svg	3	yes	53	1	614
6.6.1	win	2022-12-15	17:37:09	17:43:18	368026	62e199458482518274623771	124296744	1	practice_slash	9	advance_on_keypress_SLASH	2	stimuli_target_diamondsquares.svg	stimuli_distractor_diamondtriangles.svg	3	yes	57	0	463
6.6.1	win	2022-12-15	17:37:09	17:43:21	370657	62e199458482518274623771	124296744	1	practice_slash	9	practice_slash	3	stimuli_target_squarediamonds.svg	stimuli_distractor_diamondtriangles.svg	2	yes	53	1	542
6.6.1	win	2022-12-15	17:37:09	17:43:21	370657	62e199458482518274623771	124296744	1	practice_slash	9	advance_on_keypress_SLASH	4	stimuli_target_squarediamonds.svg	stimuli_distractor_diamondtriangles.svg	2	yes	57	0	435
6.6.1	win	2022-12-15	17:37:09	17:43:23	373218	62e199458482518274623771	124296744	1	practice_slash	9	practice_slash	5	stimuli_target_circlediamonds.svg	stimuli_distractor_trianglediamonds.svg	4	yes	53	1	483
6.6.1	win	2022-12-15	17:37:09	17:43:23	373218	62e199458482518274623771	124296744	1	practice_slash	9	advance_on_keypress_SLASH	6	stimuli_target_circlediamonds.svg	stimuli_distractor_trianglediamonds.svg	4	yes	57	0	462
6.6.1	win	2022-12-15	17:37:09	17:43:28	377319	62e199458482518274623771	124296744	1	practice_slash	9	practice_slash	7	stimuli_distractor_diamondtriangles.svg	stimuli_distractor_diamondtriangles.svg	13	no	0	1	2000
6.6.1	win	2022-12-15	17:37:09	17:43:28	377319	62e199458482518274623771	124296744	1	practice_slash	9	advance_on_keypress_SLASH	8	stimuli_distractor_diamondtriangles.svg	stimuli_distractor_diamondtriangles.svg	13	no	57	0	411
6.6.1	win	2022-12-15	17:37:09	17:43:32	381358	62e199458482518274623771	124296744	1	practice_slash	9	practice_slash	9	stimuli_distractor_trianglediamonds.svg	stimuli_distractor_diamondtriangles.svg	16	no	0	1	2000
6.6.1	win	2022-12-15	17:37:09	17:43:32	381358	62e199458482518274623771	124296744	1	practice_slash	9	advance_on_keypress_SLASH	10	stimuli_distractor_trianglediamonds.svg	stimuli_distractor_diamondtriangles.svg	16	no	57	0	408
6.6.1	win	2022-12-15	17:37:09	17:43:34	384045	62e199458482518274623771	124296744	1	practice_slash	9	practice_slash	11	stimuli_target_diamondsquares.svg	stimuli_distractor_trianglediamonds.svg	6	yes	53	1	650
6.6.1	win	2022-12-15	17:37:09	17:43:34	384045	62e199458482518274623771	124296744	1	practice_slash	9	advance_on_keypress_SLASH	12	stimuli_target_diamondsquares.svg	stimuli_distractor_trianglediamonds.svg	6	yes	57	0	501
6.6.1	win	2022-12-15	17:37:09	17:43:37	386743	62e199458482518274623771	124296744	1	practice_slash	9	practice_slash	13	stimuli_distractor_diamondtriangles.svg	stimuli_target_trianglecircles.svg	9	yes	53	1	546
6.6.1	win	2022-12-15	17:37:09	17:43:37	386743	62e199458482518274623771	124296744	1	practice_slash	9	advance_on_keypress_SLASH	14	stimuli_distractor_diamondtriangles.svg	stimuli_target_trianglecircles.svg	9	yes	57	0	384
6.6.1	win	2022-12-15	17:37:09	17:43:40	389399	62e199458482518274623771	124296744	1	practice_slash	9	practice_slash	15	stimuli_distractor_trianglediamonds.svg	stimuli_target_circlediamonds.svg	10	yes	53	1	632
6.6.1	win	2022-12-15	17:37:09	17:43:40	389399	62e199458482518274623771	124296744	1	practice_slash	9	advance_on_keypress_SLASH	16	stimuli_distractor_trianglediamonds.svg	stimuli_target_circlediamonds.svg	10	yes	57	0	490
6.6.1	win	2022-12-15	17:37:09	17:43:42	391979	62e199458482518274623771	124296744	1	practice_slash	9	practice_slash	17	stimuli_distractor_trianglediamonds.svg	stimuli_target_diamondcircles.svg	12	yes	53	1	460
6.6.1	win	2022-12-15	17:37:09	17:43:42	391979	62e199458482518274623771	124296744	1	practice_slash	9	advance_on_keypress_SLASH	18	stimuli_distractor_trianglediamonds.svg	stimuli_target_diamondcircles.svg	12	yes	57	0	357
6.6.1	win	2022-12-15	17:37:09	17:43:45	394512	62e199458482518274623771	124296744	1	practice_slash	9	practice_slash	19	stimuli_target_squarediamonds.svg	stimuli_distractor_trianglediamonds.svg	5	yes	53	1	540
6.6.1	win	2022-12-15	17:37:09	17:43:45	394512	62e199458482518274623771	124296744	1	practice_slash	9	advance_on_keypress_SLASH	20	stimuli_target_squarediamonds.svg	stimuli_distractor_trianglediamonds.svg	5	yes	57	0	270
6.6.1	win	2022-12-15	17:37:09	17:43:49	398425	62e199458482518274623771	124296744	1	practice_slash	9	practice_slash	21	stimuli_distractor_trianglediamonds.svg	stimuli_distractor_trianglediamonds.svg	15	no	0	1	2000
6.6.1	win	2022-12-15	17:37:09	17:43:49	398425	62e199458482518274623771	124296744	1	practice_slash	9	advance_on_keypress_SLASH	22	stimuli_distractor_trianglediamonds.svg	stimuli_distractor_trianglediamonds.svg	15	no	57	0	504
6.6.1	win	2022-12-15	17:37:09	17:43:51	401123	62e199458482518274623771	124296744	1	practice_slash	9	practice_slash	23	stimuli_target_circlediamonds.svg	stimuli_distractor_diamondtriangles.svg	1	yes	53	1	561
6.6.1	win	2022-12-15	17:37:09	17:43:51	401123	62e199458482518274623771	124296744	1	practice_slash	9	advance_on_keypress_SLASH	24	stimuli_target_circlediamonds.svg	stimuli_distractor_diamondtriangles.svg	1	yes	57	0	363
6.6.1	win	2022-12-15	17:37:09	17:43:54	403647	62e199458482518274623771	124296744	1	practice_slash	9	practice_slash	25	stimuli_distractor_trianglediamonds.svg	stimuli_target_squarediamonds.svg	11	yes	53	1	533
6.6.1	win	2022-12-15	17:37:09	17:43:54	403647	62e199458482518274623771	124296744	1	practice_slash	9	advance_on_keypress_SLASH	26	stimuli_distractor_trianglediamonds.svg	stimuli_target_squarediamonds.svg	11	yes	57	0	602
6.6.1	win	2022-12-15	17:37:09	17:43:57	406431	62e199458482518274623771	124296744	1	practice_slash	9	practice_slash	27	stimuli_distractor_diamondtriangles.svg	stimuli_target_diamondcircles.svg	8	yes	53	1	547
6.6.1	win	2022-12-15	17:37:09	17:43:57	406431	62e199458482518274623771	124296744	1	practice_slash	9	advance_on_keypress_SLASH	28	stimuli_distractor_diamondtriangles.svg	stimuli_target_diamondcircles.svg	8	yes	57	0	420
6.6.1	win	2022-12-15	17:37:09	17:44:01	410486	62e199458482518274623771	124296744	1	practice_slash	9	practice_slash	29	stimuli_distractor_diamondtriangles.svg	stimuli_distractor_trianglediamonds.svg	14	no	0	1	2000
6.6.1	win	2022-12-15	17:37:09	17:44:01	410486	62e199458482518274623771	124296744	1	practice_slash	9	advance_on_keypress_SLASH	30	stimuli_distractor_diamondtriangles.svg	stimuli_distractor_trianglediamonds.svg	14	no	57	0	366
6.6.1	win	2022-12-15	17:37:09	17:44:03	413044	62e199458482518274623771	124296744	1	practice_slash	9	practice_slash	31	stimuli_distractor_diamondtriangles.svg	stimuli_target_circletriangles.svg	7	yes	53	1	553
6.6.1	win	2022-12-15	17:37:09	17:44:03	413044	62e199458482518274623771	124296744	1	practice_slash	9	advance_on_keypress_SLASH	32	stimuli_distractor_diamondtriangles.svg	stimuli_target_circletriangles.svg	7	yes	57	0	118
6.6.1	win	2022-12-15	17:37:09	17:44:07	417166	62e199458482518274623771	124296744	1	main_slash	11	main_slash	1	stimuli_distractor_diamondtriangles.svg	stimuli_target_squaretriangles.svg	15	yes	53	1	405
6.6.1	win	2022-12-15	17:37:09	17:44:07	417166	62e199458482518274623771	124296744	1	main_slash	11	advance_on_keypress_SLASH	2	stimuli_distractor_diamondtriangles.svg	stimuli_target_squaretriangles.svg	15	yes	57	0	1013
6.6.1	win	2022-12-15	17:37:09	17:44:11	420813	62e199458482518274623771	124296744	1	main_slash	11	main_slash	3	stimuli_distractor_trianglediamonds.svg	stimuli_distractor_trianglediamonds.svg	34	no	0	1	2000
6.6.1	win	2022-12-15	17:37:09	17:44:11	420813	62e199458482518274623771	124296744	1	main_slash	11	advance_on_keypress_SLASH	4	stimuli_distractor_trianglediamonds.svg	stimuli_distractor_trianglediamonds.svg	34	no	57	0	523
6.6.1	win	2022-12-15	17:37:09	17:44:13	422484	62e199458482518274623771	124296744	1	main_slash	11	main_slash	5	stimuli_target_trianglesquares.svg	stimuli_distractor_diamondtriangles.svg	22	yes	53	1	515
6.6.1	win	2022-12-15	17:37:09	17:44:13	422484	62e199458482518274623771	124296744	1	main_slash	11	advance_on_keypress_SLASH	6	stimuli_target_trianglesquares.svg	stimuli_distractor_diamondtriangles.svg	22	yes	57	0	496
6.6.1	win	2022-12-15	17:37:09	17:44:16	425618	62e199458482518274623771	124296744	1	main_slash	11	main_slash	7	stimuli_distractor_trianglediamonds.svg	stimuli_distractor_trianglediamonds.svg	33	no	0	1	2000
6.6.1	win	2022-12-15	17:37:09	17:44:16	425618	62e199458482518274623771	124296744	1	main_slash	11	advance_on_keypress_SLASH	8	stimuli_distractor_trianglediamonds.svg	stimuli_distractor_trianglediamonds.svg	33	no	57	0	424
6.6.1	win	2022-12-15	17:37:09	17:44:17	427103	62e199458482518274623771	124296744	1	main_slash	11	main_slash	9	stimuli_target_circletriangles.svg	stimuli_distractor_trianglediamonds.svg	1	yes	53	1	432
6.6.1	win	2022-12-15	17:37:09	17:44:17	427103	62e199458482518274623771	124296744	1	main_slash	11	advance_on_keypress_SLASH	10	stimuli_target_circletriangles.svg	stimuli_distractor_trianglediamonds.svg	1	yes	57	0	570
6.6.1	win	2022-12-15	17:37:09	17:44:19	428937	62e199458482518274623771	124296744	1	main_slash	11	main_slash	11	stimuli_distractor_trianglediamonds.svg	stimuli_target_trianglecircles.svg	25	yes	53	1	631
6.6.1	win	2022-12-15	17:37:09	17:44:19	428937	62e199458482518274623771	124296744	1	main_slash	11	advance_on_keypress_SLASH	12	stimuli_distractor_trianglediamonds.svg	stimuli_target_trianglecircles.svg	25	yes	57	0	450
6.6.1	win	2022-12-15	17:37:09	17:44:21	430572	62e199458482518274623771	124296744	1	main_slash	11	main_slash	13	stimuli_distractor_diamondtriangles.svg	stimuli_target_squarediamonds.svg	16	yes	53	1	548
6.6.1	win	2022-12-15	17:37:09	17:44:21	430572	62e199458482518274623771	124296744	1	main_slash	11	advance_on_keypress_SLASH	14	stimuli_distractor_diamondtriangles.svg	stimuli_target_squarediamonds.svg	16	yes	57	0	458
6.6.1	win	2022-12-15	17:37:09	17:44:24	433659	62e199458482518274623771	124296744	1	main_slash	11	main_slash	15	stimuli_distractor_diamondtriangles.svg	stimuli_distractor_trianglediamonds.svg	37	no	0	1	2000
6.6.1	win	2022-12-15	17:37:09	17:44:24	433659	62e199458482518274623771	124296744	1	main_slash	11	advance_on_keypress_SLASH	16	stimuli_distractor_diamondtriangles.svg	stimuli_distractor_trianglediamonds.svg	37	no	57	0	609
6.6.1	win	2022-12-15	17:37:09	17:44:26	435366	62e199458482518274623771	124296744	1	main_slash	11	main_slash	17	stimuli_distractor_diamondtriangles.svg	stimuli_target_trianglesquares.svg	30	yes	53	1	470
6.6.1	win	2022-12-15	17:37:09	17:44:26	435366	62e199458482518274623771	124296744	1	main_slash	11	advance_on_keypress_SLASH	18	stimuli_distractor_diamondtriangles.svg	stimuli_target_trianglesquares.svg	30	yes	57	0	414
6.6.1	win	2022-12-15	17:37:09	17:44:27	437025	62e199458482518274623771	124296744	1	main_slash	11	main_slash	19	stimuli_distractor_diamondtriangles.svg	stimuli_target_circlediamonds.svg	14	yes	53	1	611
6.6.1	win	2022-12-15	17:37:09	17:44:27	437025	62e199458482518274623771	124296744	1	main_slash	11	advance_on_keypress_SLASH	20	stimuli_distractor_diamondtriangles.svg	stimuli_target_circlediamonds.svg	14	yes	57	0	349
6.6.1	win	2022-12-15	17:37:09	17:44:29	438628	62e199458482518274623771	124296744	1	main_slash	11	main_slash	21	stimuli_target_circlediamonds.svg	stimuli_distractor_trianglediamonds.svg	2	yes	53	1	613
6.6.1	win	2022-12-15	17:37:09	17:44:29	438628	62e199458482518274623771	124296744	1	main_slash	11	advance_on_keypress_SLASH	22	stimuli_target_circlediamonds.svg	stimuli_distractor_trianglediamonds.svg	2	yes	57	0	379
6.6.1	win	2022-12-15	17:37:09	17:44:32	441634	62e199458482518274623771	124296744	1	main_slash	11	main_slash	23	stimuli_distractor_trianglediamonds.svg	stimuli_distractor_diamondtriangles.svg	35	no	0	1	2000
6.6.1	win	2022-12-15	17:37:09	17:44:32	441634	62e199458482518274623771	124296744	1	main_slash	11	advance_on_keypress_SLASH	24	stimuli_distractor_trianglediamonds.svg	stimuli_distractor_diamondtriangles.svg	35	no	57	0	834
6.6.1	win	2022-12-15	17:37:09	17:44:35	445104	62e199458482518274623771	124296744	1	main_slash	11	main_slash	25	stimuli_distractor_diamondtriangles.svg	stimuli_distractor_diamondtriangles.svg	39	no	0	1	2000
6.6.1	win	2022-12-15	17:37:09	17:44:35	445104	62e199458482518274623771	124296744	1	main_slash	11	advance_on_keypress_SLASH	26	stimuli_distractor_diamondtriangles.svg	stimuli_distractor_diamondtriangles.svg	39	no	57	0	522
6.6.1	win	2022-12-15	17:37:09	17:44:37	446854	62e199458482518274623771	124296744	1	main_slash	11	main_slash	27	stimuli_target_diamondsquares.svg	stimuli_distractor_trianglediamonds.svg	20	yes	53	1	597
6.6.1	win	2022-12-15	17:37:09	17:44:37	446854	62e199458482518274623771	124296744	1	main_slash	11	advance_on_keypress_SLASH	28	stimuli_target_diamondsquares.svg	stimuli_distractor_trianglediamonds.svg	20	yes	57	0	425
6.6.1	win	2022-12-15	17:37:09	17:44:39	448437	62e199458482518274623771	124296744	1	main_slash	11	main_slash	29	stimuli_target_trianglecircles.svg	stimuli_distractor_trianglediamonds.svg	17	yes	53	1	529
6.6.1	win	2022-12-15	17:37:09	17:44:39	448437	62e199458482518274623771	124296744	1	main_slash	11	advance_on_keypress_SLASH	30	stimuli_target_trianglecircles.svg	stimuli_distractor_trianglediamonds.svg	17	yes	57	0	387
6.6.1	win	2022-12-15	17:37:09	17:44:40	450164	62e199458482518274623771	124296744	1	main_slash	11	main_slash	31	stimuli_target_diamondcircles.svg	stimuli_distractor_trianglediamonds.svg	19	yes	53	1	704
6.6.1	win	2022-12-15	17:37:09	17:44:40	450164	62e199458482518274623771	124296744	1	main_slash	11	advance_on_keypress_SLASH	32	stimuli_target_diamondcircles.svg	stimuli_distractor_trianglediamonds.svg	19	yes	57	0	422
6.6.1	win	2022-12-15	17:37:09	17:44:43	453229	62e199458482518274623771	124296744	1	main_slash	11	main_slash	33	stimuli_distractor_diamondtriangles.svg	stimuli_distractor_trianglediamonds.svg	38	no	0	1	2000
6.6.1	win	2022-12-15	17:37:09	17:44:43	453229	62e199458482518274623771	124296744	1	main_slash	11	advance_on_keypress_SLASH	34	stimuli_distractor_diamondtriangles.svg	stimuli_distractor_trianglediamonds.svg	38	no	57	0	727
6.6.1	win	2022-12-15	17:37:09	17:44:45	455099	62e199458482518274623771	124296744	1	main_slash	11	main_slash	35	stimuli_distractor_trianglediamonds.svg	stimuli_target_circlediamonds.svg	10	yes	53	1	511
6.6.1	win	2022-12-15	17:37:09	17:44:45	455099	62e199458482518274623771	124296744	1	main_slash	11	advance_on_keypress_SLASH	36	stimuli_distractor_trianglediamonds.svg	stimuli_target_circlediamonds.svg	10	yes	57	0	385
6.6.1	win	2022-12-15	17:37:09	17:44:47	456776	62e199458482518274623771	124296744	1	main_slash	11	main_slash	37	stimuli_target_diamondsquares.svg	stimuli_distractor_diamondtriangles.svg	24	yes	53	1	643
6.6.1	win	2022-12-15	17:37:09	17:44:47	456776	62e199458482518274623771	124296744	1	main_slash	11	advance_on_keypress_SLASH	38	stimuli_target_diamondsquares.svg	stimuli_distractor_diamondtriangles.svg	24	yes	57	0	416
6.6.1	win	2022-12-15	17:37:09	17:44:49	458327	62e199458482518274623771	124296744	1	main_slash	11	main_slash	39	stimuli_distractor_trianglediamonds.svg	stimuli_target_diamondsquares.svg	28	yes	53	1	491
6.6.1	win	2022-12-15	17:37:09	17:44:49	458327	62e199458482518274623771	124296744	1	main_slash	11	advance_on_keypress_SLASH	40	stimuli_distractor_trianglediamonds.svg	stimuli_target_diamondsquares.svg	28	yes	57	0	427
6.6.1	win	2022-12-15	17:37:09	17:44:50	459794	62e199458482518274623771	124296744	1	main_slash	11	main_slash	41	stimuli_target_squarediamonds.svg	stimuli_distractor_trianglediamonds.svg	4	yes	53	1	408
6.6.1	win	2022-12-15	17:37:09	17:44:50	459794	62e199458482518274623771	124296744	1	main_slash	11	advance_on_keypress_SLASH	42	stimuli_target_squarediamonds.svg	stimuli_distractor_trianglediamonds.svg	4	yes	57	0	415
6.6.1	win	2022-12-15	17:37:09	17:44:52	461609	62e199458482518274623771	124296744	1	main_slash	11	main_slash	43	stimuli_target_circlediamonds.svg	stimuli_distractor_diamondtriangles.svg	6	yes	53	1	770
6.6.1	win	2022-12-15	17:37:09	17:44:52	461609	62e199458482518274623771	124296744	1	main_slash	11	advance_on_keypress_SLASH	44	stimuli_target_circlediamonds.svg	stimuli_distractor_diamondtriangles.svg	6	yes	57	0	353
6.6.1	win	2022-12-15	17:37:09	17:44:53	463064	62e199458482518274623771	124296744	1	main_slash	11	main_slash	45	stimuli_distractor_diamondtriangles.svg	stimuli_target_diamondcircles.svg	31	yes	53	1	457
6.6.1	win	2022-12-15	17:37:09	17:44:53	463064	62e199458482518274623771	124296744	1	main_slash	11	advance_on_keypress_SLASH	46	stimuli_distractor_diamondtriangles.svg	stimuli_target_diamondcircles.svg	31	yes	57	0	410
6.6.1	win	2022-12-15	17:37:09	17:44:55	464560	62e199458482518274623771	124296744	1	main_slash	11	main_slash	47	stimuli_distractor_trianglediamonds.svg	stimuli_target_squaretriangles.svg	11	yes	53	1	452
6.6.1	win	2022-12-15	17:37:09	17:44:55	464560	62e199458482518274623771	124296744	1	main_slash	11	advance_on_keypress_SLASH	48	stimuli_distractor_trianglediamonds.svg	stimuli_target_squaretriangles.svg	11	yes	57	0	359
6.6.1	win	2022-12-15	17:37:09	17:44:58	467560	62e199458482518274623771	124296744	1	main_slash	11	main_slash	49	stimuli_distractor_trianglediamonds.svg	stimuli_distractor_diamondtriangles.svg	36	no	0	1	2000
6.6.1	win	2022-12-15	17:37:09	17:44:58	467560	62e199458482518274623771	124296744	1	main_slash	11	advance_on_keypress_SLASH	50	stimuli_distractor_trianglediamonds.svg	stimuli_distractor_diamondtriangles.svg	36	no	57	0	922
6.6.1	win	2022-12-15	17:37:09	17:45:00	469497	62e199458482518274623771	124296744	1	main_slash	11	main_slash	51	stimuli_distractor_trianglediamonds.svg	stimuli_target_diamondcircles.svg	27	yes	53	1	375
6.6.1	win	2022-12-15	17:37:09	17:45:00	469497	62e199458482518274623771	124296744	1	main_slash	11	advance_on_keypress_SLASH	52	stimuli_distractor_trianglediamonds.svg	stimuli_target_diamondcircles.svg	27	yes	57	0	342
6.6.1	win	2022-12-15	17:37:09	17:45:01	471068	62e199458482518274623771	124296744	1	main_slash	11	main_slash	53	stimuli_target_circletriangles.svg	stimuli_distractor_diamondtriangles.svg	5	yes	53	1	587
6.6.1	win	2022-12-15	17:37:09	17:45:01	471068	62e199458482518274623771	124296744	1	main_slash	11	advance_on_keypress_SLASH	54	stimuli_target_circletriangles.svg	stimuli_distractor_diamondtriangles.svg	5	yes	57	0	329
6.6.1	win	2022-12-15	17:37:09	17:45:03	472507	62e199458482518274623771	124296744	1	main_slash	11	main_slash	55	stimuli_distractor_diamondtriangles.svg	stimuli_target_diamondsquares.svg	32	yes	53	1	474
6.6.1	win	2022-12-15	17:37:09	17:45:03	472507	62e199458482518274623771	124296744	1	main_slash	11	advance_on_keypress_SLASH	56	stimuli_distractor_diamondtriangles.svg	stimuli_target_diamondsquares.svg	32	yes	57	0	390
6.6.1	win	2022-12-15	17:37:09	17:45:04	474023	62e199458482518274623771	124296744	1	main_slash	11	main_slash	57	stimuli_distractor_diamondtriangles.svg	stimuli_target_trianglecircles.svg	29	yes	53	1	488
6.6.1	win	2022-12-15	17:37:09	17:45:04	474023	62e199458482518274623771	124296744	1	main_slash	11	advance_on_keypress_SLASH	58	stimuli_distractor_diamondtriangles.svg	stimuli_target_trianglecircles.svg	29	yes	57	0	395
6.6.1	win	2022-12-15	17:37:09	17:45:06	475436	62e199458482518274623771	124296744	1	main_slash	11	main_slash	59	stimuli_target_trianglesquares.svg	stimuli_distractor_trianglediamonds.svg	18	yes	53	1	381
6.6.1	win	2022-12-15	17:37:09	17:45:06	475436	62e199458482518274623771	124296744	1	main_slash	11	advance_on_keypress_SLASH	60	stimuli_target_trianglesquares.svg	stimuli_distractor_trianglediamonds.svg	18	yes	57	0	393
6.6.1	win	2022-12-15	17:37:09	17:45:07	476818	62e199458482518274623771	124296744	1	main_slash	11	main_slash	61	stimuli_target_diamondcircles.svg	stimuli_distractor_diamondtriangles.svg	23	yes	53	1	347
6.6.1	win	2022-12-15	17:37:09	17:45:07	476818	62e199458482518274623771	124296744	1	main_slash	11	advance_on_keypress_SLASH	62	stimuli_target_diamondcircles.svg	stimuli_distractor_diamondtriangles.svg	23	yes	57	0	321
6.6.1	win	2022-12-15	17:37:09	17:45:08	478178	62e199458482518274623771	124296744	1	main_slash	11	main_slash	63	stimuli_distractor_trianglediamonds.svg	stimuli_target_trianglesquares.svg	26	yes	53	1	406
6.6.1	win	2022-12-15	17:37:09	17:45:08	478178	62e199458482518274623771	124296744	1	main_slash	11	advance_on_keypress_SLASH	64	stimuli_distractor_trianglediamonds.svg	stimuli_target_trianglesquares.svg	26	yes	57	0	440
6.6.1	win	2022-12-15	17:37:09	17:45:10	479717	62e199458482518274623771	124296744	1	main_slash	11	main_slash	65	stimuli_target_trianglecircles.svg	stimuli_distractor_diamondtriangles.svg	21	yes	53	1	460
6.6.1	win	2022-12-15	17:37:09	17:45:10	479717	62e199458482518274623771	124296744	1	main_slash	11	advance_on_keypress_SLASH	66	stimuli_target_trianglecircles.svg	stimuli_distractor_diamondtriangles.svg	21	yes	57	0	628
6.6.1	win	2022-12-15	17:37:09	17:45:12	481376	62e199458482518274623771	124296744	1	main_slash	11	main_slash	67	stimuli_distractor_diamondtriangles.svg	stimuli_target_circletriangles.svg	13	yes	53	1	401
6.6.1	win	2022-12-15	17:37:09	17:45:12	481376	62e199458482518274623771	124296744	1	main_slash	11	advance_on_keypress_SLASH	68	stimuli_distractor_diamondtriangles.svg	stimuli_target_circletriangles.svg	13	yes	57	0	663
6.6.1	win	2022-12-15	17:37:09	17:45:15	484677	62e199458482518274623771	124296744	1	main_slash	11	main_slash	69	stimuli_distractor_diamondtriangles.svg	stimuli_distractor_diamondtriangles.svg	40	no	0	1	2000
6.6.1	win	2022-12-15	17:37:09	17:45:15	484677	62e199458482518274623771	124296744	1	main_slash	11	advance_on_keypress_SLASH	70	stimuli_distractor_diamondtriangles.svg	stimuli_distractor_diamondtriangles.svg	40	no	57	0	661
6.6.1	win	2022-12-15	17:37:09	17:45:17	486497	62e199458482518274623771	124296744	1	main_slash	11	main_slash	71	stimuli_distractor_trianglediamonds.svg	stimuli_target_circletriangles.svg	9	yes	53	1	517
6.6.1	win	2022-12-15	17:37:09	17:45:17	486497	62e199458482518274623771	124296744	1	main_slash	11	advance_on_keypress_SLASH	72	stimuli_distractor_trianglediamonds.svg	stimuli_target_circletriangles.svg	9	yes	57	0	378
6.6.1	win	2022-12-15	17:37:09	17:45:18	488048	62e199458482518274623771	124296744	1	main_slash	11	main_slash	73	stimuli_target_squaretriangles.svg	stimuli_distractor_diamondtriangles.svg	7	yes	53	1	533
6.6.1	win	2022-12-15	17:37:09	17:45:18	488048	62e199458482518274623771	124296744	1	main_slash	11	advance_on_keypress_SLASH	74	stimuli_target_squaretriangles.svg	stimuli_distractor_diamondtriangles.svg	7	yes	57	0	338
6.6.1	win	2022-12-15	17:37:09	17:45:20	489463	62e199458482518274623771	124296744	1	main_slash	11	main_slash	75	stimuli_target_squarediamonds.svg	stimuli_distractor_diamondtriangles.svg	8	yes	53	1	430
6.6.1	win	2022-12-15	17:37:09	17:45:20	489463	62e199458482518274623771	124296744	1	main_slash	11	advance_on_keypress_SLASH	76	stimuli_target_squarediamonds.svg	stimuli_distractor_diamondtriangles.svg	8	yes	57	0	408
6.6.1	win	2022-12-15	17:37:09	17:45:22	492191	62e199458482518274623771	124296744	1	main_slash	11	main_slash	77	stimuli_target_squaretriangles.svg	stimuli_distractor_trianglediamonds.svg	3	yes	53	1	1689
6.6.1	win	2022-12-15	17:37:09	17:45:22	492191	62e199458482518274623771	124296744	1	main_slash	11	advance_on_keypress_SLASH	78	stimuli_target_squaretriangles.svg	stimuli_distractor_trianglediamonds.svg	3	yes	57	0	1695
6.6.1	win	2022-12-15	17:37:09	17:45:25	494977	62e199458482518274623771	124296744	1	main_slash	11	main_slash	79	stimuli_distractor_trianglediamonds.svg	stimuli_target_squarediamonds.svg	12	yes	53	1	456
6.6.1	win	2022-12-15	17:37:09	17:45:25	494977	62e199458482518274623771	124296744	1	main_slash	11	advance_on_keypress_SLASH	80	stimuli_distractor_trianglediamonds.svg	stimuli_target_squarediamonds.svg	12	yes	57	0	377
6.6.1	win	2022-12-15	17:37:09	17:45:27	496374	62e199458482518274623771	124296744	1	main_slash	11	main_slash	81	stimuli_distractor_trianglediamonds.svg	stimuli_target_squaretriangles.svg	11	yes	53	1	376
6.6.1	win	2022-12-15	17:37:09	17:45:27	496374	62e199458482518274623771	124296744	1	main_slash	11	advance_on_keypress_SLASH	82	stimuli_distractor_trianglediamonds.svg	stimuli_target_squaretriangles.svg	11	yes	57	0	351
6.6.1	win	2022-12-15	17:37:09	17:45:28	497856	62e199458482518274623771	124296744	1	main_slash	11	main_slash	83	stimuli_distractor_diamondtriangles.svg	stimuli_target_squarediamonds.svg	16	yes	53	1	482
6.6.1	win	2022-12-15	17:37:09	17:45:28	497856	62e199458482518274623771	124296744	1	main_slash	11	advance_on_keypress_SLASH	84	stimuli_distractor_diamondtriangles.svg	stimuli_target_squarediamonds.svg	16	yes	57	0	375
6.6.1	win	2022-12-15	17:37:09	17:45:30	499345	62e199458482518274623771	124296744	1	main_slash	11	main_slash	85	stimuli_distractor_diamondtriangles.svg	stimuli_target_squaretriangles.svg	15	yes	53	1	485
6.6.1	win	2022-12-15	17:37:09	17:45:30	499345	62e199458482518274623771	124296744	1	main_slash	11	advance_on_keypress_SLASH	86	stimuli_distractor_diamondtriangles.svg	stimuli_target_squaretriangles.svg	15	yes	57	0	512
6.6.1	win	2022-12-15	17:37:09	17:45:31	500935	62e199458482518274623771	124296744	1	main_slash	11	main_slash	87	stimuli_distractor_trianglediamonds.svg	stimuli_target_circlediamonds.svg	10	yes	53	1	441
6.6.1	win	2022-12-15	17:37:09	17:45:31	500935	62e199458482518274623771	124296744	1	main_slash	11	advance_on_keypress_SLASH	88	stimuli_distractor_trianglediamonds.svg	stimuli_target_circlediamonds.svg	10	yes	57	0	1826
6.6.1	win	2022-12-15	17:37:09	17:45:34	503807	62e199458482518274623771	124296744	1	main_slash	11	main_slash	89	stimuli_target_circlediamonds.svg	stimuli_distractor_trianglediamonds.svg	2	yes	53	1	409
6.6.1	win	2022-12-15	17:37:09	17:45:34	503807	62e199458482518274623771	124296744	1	main_slash	11	advance_on_keypress_SLASH	90	stimuli_target_circlediamonds.svg	stimuli_distractor_trianglediamonds.svg	2	yes	57	0	389
6.6.1	win	2022-12-15	17:37:09	17:45:37	506832	62e199458482518274623771	124296744	1	main_slash	11	main_slash	91	stimuli_distractor_diamondtriangles.svg	stimuli_distractor_diamondtriangles.svg	40	no	0	1	2000
6.6.1	win	2022-12-15	17:37:09	17:45:37	506832	62e199458482518274623771	124296744	1	main_slash	11	advance_on_keypress_SLASH	92	stimuli_distractor_diamondtriangles.svg	stimuli_distractor_diamondtriangles.svg	40	no	57	0	419
6.6.1	win	2022-12-15	17:37:09	17:45:39	508269	62e199458482518274623771	124296744	1	main_slash	11	main_slash	93	stimuli_target_diamondsquares.svg	stimuli_distractor_trianglediamonds.svg	20	yes	53	1	369
6.6.1	win	2022-12-15	17:37:09	17:45:39	508269	62e199458482518274623771	124296744	1	main_slash	11	advance_on_keypress_SLASH	94	stimuli_target_diamondsquares.svg	stimuli_distractor_trianglediamonds.svg	20	yes	57	0	1030
6.6.1	win	2022-12-15	17:37:09	17:45:41	510330	62e199458482518274623771	124296744	1	main_slash	11	main_slash	95	stimuli_distractor_diamondtriangles.svg	stimuli_target_diamondcircles.svg	31	yes	53	1	394
6.6.1	win	2022-12-15	17:37:09	17:45:41	510330	62e199458482518274623771	124296744	1	main_slash	11	advance_on_keypress_SLASH	96	stimuli_distractor_diamondtriangles.svg	stimuli_target_diamondcircles.svg	31	yes	57	0	2312
6.6.1	win	2022-12-15	17:37:09	17:45:44	513696	62e199458482518274623771	124296744	1	main_slash	11	main_slash	97	stimuli_distractor_diamondtriangles.svg	stimuli_target_circletriangles.svg	13	yes	53	1	423
6.6.1	win	2022-12-15	17:37:09	17:45:44	513696	62e199458482518274623771	124296744	1	main_slash	11	advance_on_keypress_SLASH	98	stimuli_distractor_diamondtriangles.svg	stimuli_target_circletriangles.svg	13	yes	57	0	437
6.6.1	win	2022-12-15	17:37:09	17:45:45	515127	62e199458482518274623771	124296744	1	main_slash	11	main_slash	99	stimuli_target_circlediamonds.svg	stimuli_distractor_diamondtriangles.svg	6	yes	53	1	352
6.6.1	win	2022-12-15	17:37:09	17:45:45	515127	62e199458482518274623771	124296744	1	main_slash	11	advance_on_keypress_SLASH	100	stimuli_target_circlediamonds.svg	stimuli_distractor_diamondtriangles.svg	6	yes	57	0	577
6.6.1	win	2022-12-15	17:37:09	17:45:49	518343	62e199458482518274623771	124296744	1	main_slash	11	main_slash	101	stimuli_distractor_trianglediamonds.svg	stimuli_distractor_trianglediamonds.svg	34	no	0	1	2000
6.6.1	win	2022-12-15	17:37:09	17:45:49	518343	62e199458482518274623771	124296744	1	main_slash	11	advance_on_keypress_SLASH	102	stimuli_distractor_trianglediamonds.svg	stimuli_distractor_trianglediamonds.svg	34	no	57	0	429
6.6.1	win	2022-12-15	17:37:09	17:45:50	519916	62e199458482518274623771	124296744	1	main_slash	11	main_slash	103	stimuli_distractor_diamondtriangles.svg	stimuli_target_trianglecircles.svg	29	yes	53	1	520
6.6.1	win	2022-12-15	17:37:09	17:45:50	519916	62e199458482518274623771	124296744	1	main_slash	11	advance_on_keypress_SLASH	104	stimuli_distractor_diamondtriangles.svg	stimuli_target_trianglecircles.svg	29	yes	57	0	351
6.6.1	win	2022-12-15	17:37:09	17:45:52	521336	62e199458482518274623771	124296744	1	main_slash	11	main_slash	105	stimuli_target_trianglecircles.svg	stimuli_distractor_trianglediamonds.svg	17	yes	53	1	422
6.6.1	win	2022-12-15	17:37:09	17:45:52	521336	62e199458482518274623771	124296744	1	main_slash	11	advance_on_keypress_SLASH	106	stimuli_target_trianglecircles.svg	stimuli_distractor_trianglediamonds.svg	17	yes	57	0	416
6.6.1	win	2022-12-15	17:37:09	17:45:53	523035	62e199458482518274623771	124296744	1	main_slash	11	main_slash	107	stimuli_distractor_trianglediamonds.svg	stimuli_target_trianglesquares.svg	26	yes	53	1	636
6.6.1	win	2022-12-15	17:37:09	17:45:53	523035	62e199458482518274623771	124296744	1	main_slash	11	advance_on_keypress_SLASH	108	stimuli_distractor_trianglediamonds.svg	stimuli_target_trianglesquares.svg	26	yes	57	0	493
6.6.1	win	2022-12-15	17:37:09	17:45:55	524598	62e199458482518274623771	124296744	1	main_slash	11	main_slash	109	stimuli_distractor_trianglediamonds.svg	stimuli_target_diamondcircles.svg	27	yes	53	1	431
6.6.1	win	2022-12-15	17:37:09	17:45:55	524598	62e199458482518274623771	124296744	1	main_slash	11	advance_on_keypress_SLASH	110	stimuli_distractor_trianglediamonds.svg	stimuli_target_diamondcircles.svg	27	yes	57	0	484
6.6.1	win	2022-12-15	17:37:09	17:45:56	526165	62e199458482518274623771	124296744	1	main_slash	11	main_slash	111	stimuli_distractor_diamondtriangles.svg	stimuli_distractor_trianglediamonds.svg	38	no	53	0	446
6.6.1	win	2022-12-15	17:37:09	17:45:56	526165	62e199458482518274623771	124296744	1	main_slash	11	advance_on_keypress_SLASH	112	stimuli_distractor_diamondtriangles.svg	stimuli_distractor_trianglediamonds.svg	38	no	57	0	1038
6.6.1	win	2022-12-15	17:37:09	17:45:59	528358	62e199458482518274623771	124296744	1	main_slash	11	main_slash	113	stimuli_target_trianglecircles.svg	stimuli_distractor_diamondtriangles.svg	21	yes	53	1	520
6.6.1	win	2022-12-15	17:37:09	17:45:59	528358	62e199458482518274623771	124296744	1	main_slash	11	advance_on_keypress_SLASH	114	stimuli_target_trianglecircles.svg	stimuli_distractor_diamondtriangles.svg	21	yes	57	0	798
6.6.1	win	2022-12-15	17:37:09	17:46:01	530281	62e199458482518274623771	124296744	1	main_slash	11	main_slash	115	stimuli_target_diamondcircles.svg	stimuli_distractor_diamondtriangles.svg	23	yes	53	1	492
6.6.1	win	2022-12-15	17:37:09	17:46:01	530281	62e199458482518274623771	124296744	1	main_slash	11	advance_on_keypress_SLASH	116	stimuli_target_diamondcircles.svg	stimuli_distractor_diamondtriangles.svg	23	yes	57	0	649
6.6.1	win	2022-12-15	17:37:09	17:46:02	532179	62e199458482518274623771	124296744	1	main_slash	11	main_slash	117	stimuli_target_trianglesquares.svg	stimuli_distractor_diamondtriangles.svg	22	yes	53	1	604
6.6.1	win	2022-12-15	17:37:09	17:46:02	532179	62e199458482518274623771	124296744	1	main_slash	11	advance_on_keypress_SLASH	118	stimuli_target_trianglesquares.svg	stimuli_distractor_diamondtriangles.svg	22	yes	57	0	359
6.6.1	win	2022-12-15	17:37:09	17:46:04	534013	62e199458482518274623771	124296744	1	main_slash	11	main_slash	119	stimuli_distractor_trianglediamonds.svg	stimuli_target_circletriangles.svg	9	yes	53	1	837
6.6.1	win	2022-12-15	17:37:09	17:46:04	534013	62e199458482518274623771	124296744	1	main_slash	11	advance_on_keypress_SLASH	120	stimuli_distractor_trianglediamonds.svg	stimuli_target_circletriangles.svg	9	yes	57	0	362
6.6.1	win	2022-12-15	17:37:09	17:46:06	535664	62e199458482518274623771	124296744	1	main_slash	11	main_slash	121	stimuli_distractor_diamondtriangles.svg	stimuli_target_trianglesquares.svg	30	yes	53	1	653
6.6.1	win	2022-12-15	17:37:09	17:46:06	535664	62e199458482518274623771	124296744	1	main_slash	11	advance_on_keypress_SLASH	122	stimuli_distractor_diamondtriangles.svg	stimuli_target_trianglesquares.svg	30	yes	57	0	334
6.6.1	win	2022-12-15	17:37:09	17:46:07	537208	62e199458482518274623771	124296744	1	main_slash	11	main_slash	123	stimuli_distractor_trianglediamonds.svg	stimuli_target_trianglecircles.svg	25	yes	53	1	561
6.6.1	win	2022-12-15	17:37:09	17:46:07	537208	62e199458482518274623771	124296744	1	main_slash	11	advance_on_keypress_SLASH	124	stimuli_distractor_trianglediamonds.svg	stimuli_target_trianglecircles.svg	25	yes	57	0	282
6.6.1	win	2022-12-15	17:37:09	17:46:09	538707	62e199458482518274623771	124296744	1	main_slash	11	main_slash	125	stimuli_target_circletriangles.svg	stimuli_distractor_diamondtriangles.svg	5	yes	53	1	576
6.6.1	win	2022-12-15	17:37:09	17:46:09	538707	62e199458482518274623771	124296744	1	main_slash	11	advance_on_keypress_SLASH	126	stimuli_target_circletriangles.svg	stimuli_distractor_diamondtriangles.svg	5	yes	57	0	495
6.6.1	win	2022-12-15	17:37:09	17:46:12	541833	62e199458482518274623771	124296744	1	main_slash	11	main_slash	127	stimuli_distractor_diamondtriangles.svg	stimuli_distractor_diamondtriangles.svg	39	no	0	1	2000
6.6.1	win	2022-12-15	17:37:09	17:46:12	541833	62e199458482518274623771	124296744	1	main_slash	11	advance_on_keypress_SLASH	128	stimuli_distractor_diamondtriangles.svg	stimuli_distractor_diamondtriangles.svg	39	no	57	0	7627
6.6.1	win	2022-12-15	17:37:09	17:46:21	550546	62e199458482518274623771	124296744	1	main_slash	11	main_slash	129	stimuli_distractor_diamondtriangles.svg	stimuli_target_diamondsquares.svg	32	yes	53	1	436
6.6.1	win	2022-12-15	17:37:09	17:46:21	550546	62e199458482518274623771	124296744	1	main_slash	11	advance_on_keypress_SLASH	130	stimuli_distractor_diamondtriangles.svg	stimuli_target_diamondsquares.svg	32	yes	57	0	513
6.6.1	win	2022-12-15	17:37:09	17:46:23	552257	62e199458482518274623771	124296744	1	main_slash	11	main_slash	131	stimuli_target_squarediamonds.svg	stimuli_distractor_trianglediamonds.svg	4	yes	53	1	563
6.6.1	win	2022-12-15	17:37:09	17:46:23	552257	62e199458482518274623771	124296744	1	main_slash	11	advance_on_keypress_SLASH	132	stimuli_target_squarediamonds.svg	stimuli_distractor_trianglediamonds.svg	4	yes	57	0	371
6.6.1	win	2022-12-15	17:37:09	17:46:26	555263	62e199458482518274623771	124296744	1	main_slash	11	main_slash	133	stimuli_distractor_trianglediamonds.svg	stimuli_distractor_diamondtriangles.svg	35	no	0	1	2000
6.6.1	win	2022-12-15	17:37:09	17:46:26	555263	62e199458482518274623771	124296744	1	main_slash	11	advance_on_keypress_SLASH	134	stimuli_distractor_trianglediamonds.svg	stimuli_distractor_diamondtriangles.svg	35	no	57	0	475
6.6.1	win	2022-12-15	17:37:09	17:46:27	556859	62e199458482518274623771	124296744	1	main_slash	11	main_slash	135	stimuli_distractor_trianglediamonds.svg	stimuli_target_diamondsquares.svg	28	yes	53	1	493
6.6.1	win	2022-12-15	17:37:09	17:46:27	556859	62e199458482518274623771	124296744	1	main_slash	11	advance_on_keypress_SLASH	136	stimuli_distractor_trianglediamonds.svg	stimuli_target_diamondsquares.svg	28	yes	57	0	404
6.6.1	win	2022-12-15	17:37:09	17:46:29	558346	62e199458482518274623771	124296744	1	main_slash	11	main_slash	137	stimuli_target_squarediamonds.svg	stimuli_distractor_diamondtriangles.svg	8	yes	53	1	445
6.6.1	win	2022-12-15	17:37:09	17:46:29	558346	62e199458482518274623771	124296744	1	main_slash	11	advance_on_keypress_SLASH	138	stimuli_target_squarediamonds.svg	stimuli_distractor_diamondtriangles.svg	8	yes	57	0	395
6.6.1	win	2022-12-15	17:37:09	17:46:30	559798	62e199458482518274623771	124296744	1	main_slash	11	main_slash	139	stimuli_target_diamondsquares.svg	stimuli_distractor_diamondtriangles.svg	24	yes	53	1	428
6.6.1	win	2022-12-15	17:37:09	17:46:30	559798	62e199458482518274623771	124296744	1	main_slash	11	advance_on_keypress_SLASH	140	stimuli_target_diamondsquares.svg	stimuli_distractor_diamondtriangles.svg	24	yes	57	0	702
6.6.1	win	2022-12-15	17:37:09	17:46:33	563138	62e199458482518274623771	124296744	1	main_slash	11	main_slash	141	stimuli_distractor_trianglediamonds.svg	stimuli_distractor_diamondtriangles.svg	36	no	0	1	2000
6.6.1	win	2022-12-15	17:37:09	17:46:33	563138	62e199458482518274623771	124296744	1	main_slash	11	advance_on_keypress_SLASH	142	stimuli_distractor_trianglediamonds.svg	stimuli_distractor_diamondtriangles.svg	36	no	57	0	415
6.6.1	win	2022-12-15	17:37:09	17:46:35	564754	62e199458482518274623771	124296744	1	main_slash	11	main_slash	143	stimuli_target_trianglesquares.svg	stimuli_distractor_trianglediamonds.svg	18	yes	53	1	563
6.6.1	win	2022-12-15	17:37:09	17:46:35	564754	62e199458482518274623771	124296744	1	main_slash	11	advance_on_keypress_SLASH	144	stimuli_target_trianglesquares.svg	stimuli_distractor_trianglediamonds.svg	18	yes	57	0	312
6.6.1	win	2022-12-15	17:37:09	17:46:37	566262	62e199458482518274623771	124296744	1	main_slash	11	main_slash	145	stimuli_distractor_trianglediamonds.svg	stimuli_target_squarediamonds.svg	12	yes	53	1	569
6.6.1	win	2022-12-15	17:37:09	17:46:37	566262	62e199458482518274623771	124296744	1	main_slash	11	advance_on_keypress_SLASH	146	stimuli_distractor_trianglediamonds.svg	stimuli_target_squarediamonds.svg	12	yes	57	0	365
6.6.1	win	2022-12-15	17:37:09	17:46:38	567796	62e199458482518274623771	124296744	1	main_slash	11	main_slash	147	stimuli_target_squaretriangles.svg	stimuli_distractor_diamondtriangles.svg	7	yes	53	1	519
6.6.1	win	2022-12-15	17:37:09	17:46:38	567796	62e199458482518274623771	124296744	1	main_slash	11	advance_on_keypress_SLASH	148	stimuli_target_squaretriangles.svg	stimuli_distractor_diamondtriangles.svg	7	yes	57	0	278
6.6.1	win	2022-12-15	17:37:09	17:46:39	569197	62e199458482518274623771	124296744	1	main_slash	11	main_slash	149	stimuli_distractor_diamondtriangles.svg	stimuli_target_circlediamonds.svg	14	yes	53	1	485
6.6.1	win	2022-12-15	17:37:09	17:46:39	569197	62e199458482518274623771	124296744	1	main_slash	11	advance_on_keypress_SLASH	150	stimuli_distractor_diamondtriangles.svg	stimuli_target_circlediamonds.svg	14	yes	57	0	237
6.6.1	win	2022-12-15	17:37:09	17:46:42	572080	62e199458482518274623771	124296744	1	main_slash	11	main_slash	151	stimuli_distractor_trianglediamonds.svg	stimuli_distractor_trianglediamonds.svg	33	no	0	1	2000
6.6.1	win	2022-12-15	17:37:09	17:46:42	572080	62e199458482518274623771	124296744	1	main_slash	11	advance_on_keypress_SLASH	152	stimuli_distractor_trianglediamonds.svg	stimuli_distractor_trianglediamonds.svg	33	no	57	0	529
6.6.1	win	2022-12-15	17:37:09	17:46:44	573691	62e199458482518274623771	124296744	1	main_slash	11	main_slash	153	stimuli_target_squaretriangles.svg	stimuli_distractor_trianglediamonds.svg	3	yes	53	1	458
6.6.1	win	2022-12-15	17:37:09	17:46:44	573691	62e199458482518274623771	124296744	1	main_slash	11	advance_on_keypress_SLASH	154	stimuli_target_squaretriangles.svg	stimuli_distractor_trianglediamonds.svg	3	yes	57	0	339
6.6.1	win	2022-12-15	17:37:09	17:46:45	575110	62e199458482518274623771	124296744	1	main_slash	11	main_slash	155	stimuli_distractor_diamondtriangles.svg	stimuli_distractor_trianglediamonds.svg	37	no	53	0	443
6.6.1	win	2022-12-15	17:37:09	17:46:45	575110	62e199458482518274623771	124296744	1	main_slash	11	advance_on_keypress_SLASH	156	stimuli_distractor_diamondtriangles.svg	stimuli_distractor_trianglediamonds.svg	37	no	57	0	855
6.6.1	win	2022-12-15	17:37:09	17:46:47	577123	62e199458482518274623771	124296744	1	main_slash	11	main_slash	157	stimuli_target_diamondcircles.svg	stimuli_distractor_trianglediamonds.svg	19	yes	53	1	521
6.6.1	win	2022-12-15	17:37:09	17:46:47	577123	62e199458482518274623771	124296744	1	main_slash	11	advance_on_keypress_SLASH	158	stimuli_target_diamondcircles.svg	stimuli_distractor_trianglediamonds.svg	19	yes	57	0	522
6.6.1	win	2022-12-15	17:37:09	17:46:49	578895	62e199458482518274623771	124296744	1	main_slash	11	main_slash	159	stimuli_target_circletriangles.svg	stimuli_distractor_trianglediamonds.svg	1	yes	53	1	607
6.6.1	win	2022-12-15	17:37:09	17:46:49	578895	62e199458482518274623771	124296744	1	main_slash	11	advance_on_keypress_SLASH	160	stimuli_target_circletriangles.svg	stimuli_distractor_trianglediamonds.svg	1	yes	57	0	310