build	computer.platform	date	time	timestamp	time_elapsed_ms	subject	group	session	blockcode	blocknum	trialcode	trialnum	stimulus_left	stimulus_right	stim_index	target_present	response	correct	latency
6.6.1	win	2022-12-15	02:26:54	02:31:29	271540	62ecb2993d7ecd89154af5d4	844939370	1	practice_z	5	practice_z	1	stimuli_distractor_diamondtriangles.svg	stimuli_distractor_diamondtriangles.svg	13	no	44	0	1197
6.6.1	win	2022-12-15	02:26:54	02:31:29	271540	62ecb2993d7ecd89154af5d4	844939370	1	practice_z	5	advance_on_keypress_ZEE	2	stimuli_distractor_diamondtriangles.svg	stimuli_distractor_diamondtriangles.svg	13	no	57	0	3208
6.6.1	win	2022-12-15	02:26:54	02:31:35	277790	62ecb2993d7ecd89154af5d4	844939370	1	practice_z	5	practice_z	3	stimuli_target_diamondsquares.svg	stimuli_distractor_diamondtriangles.svg	3	yes	44	1	1364
6.6.1	win	2022-12-15	02:26:54	02:31:35	277790	62ecb2993d7ecd89154af5d4	844939370	1	practice_z	5	advance_on_keypress_ZEE	4	stimuli_target_diamondsquares.svg	stimuli_distractor_diamondtriangles.svg	3	yes	57	0	1591
6.6.1	win	2022-12-15	02:26:54	02:31:40	282135	62ecb2993d7ecd89154af5d4	844939370	1	practice_z	5	practice_z	5	stimuli_distractor_trianglediamonds.svg	stimuli_target_circlediamonds.svg	10	yes	44	1	1076
6.6.1	win	2022-12-15	02:26:54	02:31:40	282135	62ecb2993d7ecd89154af5d4	844939370	1	practice_z	5	advance_on_keypress_ZEE	6	stimuli_distractor_trianglediamonds.svg	stimuli_target_circlediamonds.svg	10	yes	57	0	1944
6.6.1	win	2022-12-15	02:26:54	02:31:45	287744	62ecb2993d7ecd89154af5d4	844939370	1	practice_z	5	practice_z	7	stimuli_distractor_trianglediamonds.svg	stimuli_distractor_trianglediamonds.svg	15	no	0	1	2000
6.6.1	win	2022-12-15	02:26:54	02:31:45	287744	62ecb2993d7ecd89154af5d4	844939370	1	practice_z	5	advance_on_keypress_ZEE	8	stimuli_distractor_trianglediamonds.svg	stimuli_distractor_trianglediamonds.svg	15	no	57	0	1061
6.6.1	win	2022-12-15	02:26:54	02:31:49	291613	62ecb2993d7ecd89154af5d4	844939370	1	practice_z	5	practice_z	9	stimuli_distractor_trianglediamonds.svg	stimuli_target_squarediamonds.svg	11	yes	44	1	1122
6.6.1	win	2022-12-15	02:26:54	02:31:49	291613	62ecb2993d7ecd89154af5d4	844939370	1	practice_z	5	advance_on_keypress_ZEE	10	stimuli_distractor_trianglediamonds.svg	stimuli_target_squarediamonds.svg	11	yes	57	0	1201
6.6.1	win	2022-12-15	02:26:54	02:31:53	295589	62ecb2993d7ecd89154af5d4	844939370	1	practice_z	5	practice_z	11	stimuli_target_circlediamonds.svg	stimuli_distractor_trianglediamonds.svg	4	yes	44	1	1114
6.6.1	win	2022-12-15	02:26:54	02:31:53	295589	62ecb2993d7ecd89154af5d4	844939370	1	practice_z	5	advance_on_keypress_ZEE	12	stimuli_target_circlediamonds.svg	stimuli_distractor_trianglediamonds.svg	4	yes	57	0	827
6.6.1	win	2022-12-15	02:26:54	02:31:58	300074	62ecb2993d7ecd89154af5d4	844939370	1	practice_z	5	practice_z	13	stimuli_distractor_diamondtriangles.svg	stimuli_distractor_trianglediamonds.svg	14	no	0	1	2000
6.6.1	win	2022-12-15	02:26:54	02:31:58	300074	62ecb2993d7ecd89154af5d4	844939370	1	practice_z	5	advance_on_keypress_ZEE	14	stimuli_distractor_diamondtriangles.svg	stimuli_distractor_trianglediamonds.svg	14	no	57	0	870
6.6.1	win	2022-12-15	02:26:54	02:32:02	304590	62ecb2993d7ecd89154af5d4	844939370	1	practice_z	5	practice_z	15	stimuli_target_diamondsquares.svg	stimuli_distractor_trianglediamonds.svg	6	yes	0	0	2000
6.6.1	win	2022-12-15	02:26:54	02:32:02	304590	62ecb2993d7ecd89154af5d4	844939370	1	practice_z	5	advance_on_keypress_ZEE	16	stimuli_target_diamondsquares.svg	stimuli_distractor_trianglediamonds.svg	6	yes	57	0	836
6.6.1	win	2022-12-15	02:26:54	02:32:06	308058	62ecb2993d7ecd89154af5d4	844939370	1	practice_z	5	practice_z	17	stimuli_distractor_diamondtriangles.svg	stimuli_target_circletriangles.svg	7	yes	44	1	968
6.6.1	win	2022-12-15	02:26:54	02:32:06	308058	62ecb2993d7ecd89154af5d4	844939370	1	practice_z	5	advance_on_keypress_ZEE	18	stimuli_distractor_diamondtriangles.svg	stimuli_target_circletriangles.svg	7	yes	57	0	903
6.6.1	win	2022-12-15	02:26:54	02:32:09	311985	62ecb2993d7ecd89154af5d4	844939370	1	practice_z	5	practice_z	19	stimuli_distractor_trianglediamonds.svg	stimuli_distractor_diamondtriangles.svg	16	no	44	0	1362
6.6.1	win	2022-12-15	02:26:54	02:32:09	311985	62ecb2993d7ecd89154af5d4	844939370	1	practice_z	5	advance_on_keypress_ZEE	20	stimuli_distractor_trianglediamonds.svg	stimuli_distractor_diamondtriangles.svg	16	no	57	0	785
6.6.1	win	2022-12-15	02:26:54	02:32:13	315070	62ecb2993d7ecd89154af5d4	844939370	1	practice_z	5	practice_z	21	stimuli_target_squarediamonds.svg	stimuli_distractor_trianglediamonds.svg	5	yes	44	1	647
6.6.1	win	2022-12-15	02:26:54	02:32:13	315070	62ecb2993d7ecd89154af5d4	844939370	1	practice_z	5	advance_on_keypress_ZEE	22	stimuli_target_squarediamonds.svg	stimuli_distractor_trianglediamonds.svg	5	yes	57	0	1278
6.6.1	win	2022-12-15	02:26:54	02:32:16	318886	62ecb2993d7ecd89154af5d4	844939370	1	practice_z	5	practice_z	23	stimuli_distractor_diamondtriangles.svg	stimuli_target_diamondcircles.svg	8	yes	44	1	864
6.6.1	win	2022-12-15	02:26:54	02:32:16	318886	62ecb2993d7ecd89154af5d4	844939370	1	practice_z	5	advance_on_keypress_ZEE	24	stimuli_distractor_diamondtriangles.svg	stimuli_target_diamondcircles.svg	8	yes	57	0	1592
6.6.1	win	2022-12-15	02:26:54	02:32:20	322852	62ecb2993d7ecd89154af5d4	844939370	1	practice_z	5	practice_z	25	stimuli_target_circlediamonds.svg	stimuli_distractor_diamondtriangles.svg	1	yes	44	1	714
6.6.1	win	2022-12-15	02:26:54	02:32:20	322852	62ecb2993d7ecd89154af5d4	844939370	1	practice_z	5	advance_on_keypress_ZEE	26	stimuli_target_circlediamonds.svg	stimuli_distractor_diamondtriangles.svg	1	yes	57	0	1057
6.6.1	win	2022-12-15	02:26:54	02:32:24	326902	62ecb2993d7ecd89154af5d4	844939370	1	practice_z	5	practice_z	27	stimuli_distractor_trianglediamonds.svg	stimuli_target_diamondcircles.svg	12	yes	44	1	1332
6.6.1	win	2022-12-15	02:26:54	02:32:24	326902	62ecb2993d7ecd89154af5d4	844939370	1	practice_z	5	advance_on_keypress_ZEE	28	stimuli_distractor_trianglediamonds.svg	stimuli_target_diamondcircles.svg	12	yes	57	0	624
6.6.1	win	2022-12-15	02:26:54	02:32:27	329862	62ecb2993d7ecd89154af5d4	844939370	1	practice_z	5	practice_z	29	stimuli_target_squarediamonds.svg	stimuli_distractor_diamondtriangles.svg	2	yes	44	1	675
6.6.1	win	2022-12-15	02:26:54	02:32:27	329862	62ecb2993d7ecd89154af5d4	844939370	1	practice_z	5	advance_on_keypress_ZEE	30	stimuli_target_squarediamonds.svg	stimuli_distractor_diamondtriangles.svg	2	yes	57	0	1549
6.6.1	win	2022-12-15	02:26:54	02:32:32	334164	62ecb2993d7ecd89154af5d4	844939370	1	practice_z	5	practice_z	31	stimuli_distractor_diamondtriangles.svg	stimuli_target_trianglecircles.svg	9	yes	44	1	1076
6.6.1	win	2022-12-15	02:26:54	02:32:32	334164	62ecb2993d7ecd89154af5d4	844939370	1	practice_z	5	advance_on_keypress_ZEE	32	stimuli_distractor_diamondtriangles.svg	stimuli_target_trianglecircles.svg	9	yes	57	0	3001
6.6.1	win	2022-12-15	02:26:54	02:32:44	346323	62ecb2993d7ecd89154af5d4	844939370	1	main_z	7	main_z	1	stimuli_distractor_trianglediamonds.svg	stimuli_target_trianglesquares.svg	26	yes	44	1	874
6.6.1	win	2022-12-15	02:26:54	02:32:44	346323	62ecb2993d7ecd89154af5d4	844939370	1	main_z	7	advance_on_keypress_ZEE	2	stimuli_distractor_trianglediamonds.svg	stimuli_target_trianglesquares.svg	26	yes	57	0	2928
6.6.1	win	2022-12-15	02:26:54	02:32:48	350694	62ecb2993d7ecd89154af5d4	844939370	1	main_z	7	main_z	3	stimuli_distractor_diamondtriangles.svg	stimuli_target_squarediamonds.svg	16	yes	44	1	779
6.6.1	win	2022-12-15	02:26:54	02:32:48	350694	62ecb2993d7ecd89154af5d4	844939370	1	main_z	7	advance_on_keypress_ZEE	4	stimuli_distractor_diamondtriangles.svg	stimuli_target_squarediamonds.svg	16	yes	57	0	1836
6.6.1	win	2022-12-15	02:26:54	02:32:52	354037	62ecb2993d7ecd89154af5d4	844939370	1	main_z	7	main_z	5	stimuli_target_circlediamonds.svg	stimuli_distractor_diamondtriangles.svg	6	yes	44	1	856
6.6.1	win	2022-12-15	02:26:54	02:32:52	354037	62ecb2993d7ecd89154af5d4	844939370	1	main_z	7	advance_on_keypress_ZEE	6	stimuli_target_circlediamonds.svg	stimuli_distractor_diamondtriangles.svg	6	yes	57	0	782
6.6.1	win	2022-12-15	02:26:54	02:32:54	356177	62ecb2993d7ecd89154af5d4	844939370	1	main_z	7	main_z	7	stimuli_target_circlediamonds.svg	stimuli_distractor_trianglediamonds.svg	2	yes	44	1	714
6.6.1	win	2022-12-15	02:26:54	02:32:54	356177	62ecb2993d7ecd89154af5d4	844939370	1	main_z	7	advance_on_keypress_ZEE	8	stimuli_target_circlediamonds.svg	stimuli_distractor_trianglediamonds.svg	2	yes	57	0	482
6.6.1	win	2022-12-15	02:26:54	02:32:56	358244	62ecb2993d7ecd89154af5d4	844939370	1	main_z	7	main_z	9	stimuli_distractor_trianglediamonds.svg	stimuli_target_diamondcircles.svg	27	yes	44	1	930
6.6.1	win	2022-12-15	02:26:54	02:32:56	358244	62ecb2993d7ecd89154af5d4	844939370	1	main_z	7	advance_on_keypress_ZEE	10	stimuli_distractor_trianglediamonds.svg	stimuli_target_diamondcircles.svg	27	yes	57	0	444
6.6.1	win	2022-12-15	02:26:54	02:32:58	360555	62ecb2993d7ecd89154af5d4	844939370	1	main_z	7	main_z	11	stimuli_target_trianglesquares.svg	stimuli_distractor_trianglediamonds.svg	18	yes	44	1	1208
6.6.1	win	2022-12-15	02:26:54	02:32:58	360555	62ecb2993d7ecd89154af5d4	844939370	1	main_z	7	advance_on_keypress_ZEE	12	stimuli_target_trianglesquares.svg	stimuli_distractor_trianglediamonds.svg	18	yes	57	0	649
6.6.1	win	2022-12-15	02:26:54	02:33:01	363864	62ecb2993d7ecd89154af5d4	844939370	1	main_z	7	main_z	13	stimuli_distractor_trianglediamonds.svg	stimuli_distractor_trianglediamonds.svg	34	no	0	1	2000
6.6.1	win	2022-12-15	02:26:54	02:33:01	363864	62ecb2993d7ecd89154af5d4	844939370	1	main_z	7	advance_on_keypress_ZEE	14	stimuli_distractor_trianglediamonds.svg	stimuli_distractor_trianglediamonds.svg	34	no	57	0	1381
6.6.1	win	2022-12-15	02:26:54	02:33:05	367075	62ecb2993d7ecd89154af5d4	844939370	1	main_z	7	main_z	15	stimuli_distractor_diamondtriangles.svg	stimuli_target_trianglesquares.svg	30	yes	44	1	1179
6.6.1	win	2022-12-15	02:26:54	02:33:05	367075	62ecb2993d7ecd89154af5d4	844939370	1	main_z	7	advance_on_keypress_ZEE	16	stimuli_distractor_diamondtriangles.svg	stimuli_target_trianglesquares.svg	30	yes	57	0	1138
6.6.1	win	2022-12-15	02:26:54	02:33:08	370385	62ecb2993d7ecd89154af5d4	844939370	1	main_z	7	main_z	17	stimuli_distractor_trianglediamonds.svg	stimuli_target_trianglecircles.svg	25	yes	44	1	1523
6.6.1	win	2022-12-15	02:26:54	02:33:08	370385	62ecb2993d7ecd89154af5d4	844939370	1	main_z	7	advance_on_keypress_ZEE	18	stimuli_distractor_trianglediamonds.svg	stimuli_target_trianglecircles.svg	25	yes	57	0	709
6.6.1	win	2022-12-15	02:26:54	02:33:10	372820	62ecb2993d7ecd89154af5d4	844939370	1	main_z	7	main_z	19	stimuli_distractor_diamondtriangles.svg	stimuli_target_diamondsquares.svg	32	yes	44	1	1057
6.6.1	win	2022-12-15	02:26:54	02:33:10	372820	62ecb2993d7ecd89154af5d4	844939370	1	main_z	7	advance_on_keypress_ZEE	20	stimuli_distractor_diamondtriangles.svg	stimuli_target_diamondsquares.svg	32	yes	57	0	521
6.6.1	win	2022-12-15	02:26:54	02:33:13	375593	62ecb2993d7ecd89154af5d4	844939370	1	main_z	7	main_z	21	stimuli_distractor_diamondtriangles.svg	stimuli_distractor_diamondtriangles.svg	40	no	44	0	1597
6.6.1	win	2022-12-15	02:26:54	02:33:13	375593	62ecb2993d7ecd89154af5d4	844939370	1	main_z	7	advance_on_keypress_ZEE	22	stimuli_distractor_diamondtriangles.svg	stimuli_distractor_diamondtriangles.svg	40	no	57	0	479
6.6.1	win	2022-12-15	02:26:54	02:33:15	377613	62ecb2993d7ecd89154af5d4	844939370	1	main_z	7	main_z	23	stimuli_distractor_trianglediamonds.svg	stimuli_target_diamondsquares.svg	28	yes	44	1	884
6.6.1	win	2022-12-15	02:26:54	02:33:15	377613	62ecb2993d7ecd89154af5d4	844939370	1	main_z	7	advance_on_keypress_ZEE	24	stimuli_distractor_trianglediamonds.svg	stimuli_target_diamondsquares.svg	28	yes	57	0	425
6.6.1	win	2022-12-15	02:26:54	02:33:18	380696	62ecb2993d7ecd89154af5d4	844939370	1	main_z	7	main_z	25	stimuli_distractor_diamondtriangles.svg	stimuli_distractor_diamondtriangles.svg	39	no	0	1	2000
6.6.1	win	2022-12-15	02:26:54	02:33:18	380696	62ecb2993d7ecd89154af5d4	844939370	1	main_z	7	advance_on_keypress_ZEE	26	stimuli_distractor_diamondtriangles.svg	stimuli_distractor_diamondtriangles.svg	39	no	57	0	758
6.6.1	win	2022-12-15	02:26:54	02:33:20	382959	62ecb2993d7ecd89154af5d4	844939370	1	main_z	7	main_z	27	stimuli_target_diamondcircles.svg	stimuli_distractor_trianglediamonds.svg	19	yes	44	1	847
6.6.1	win	2022-12-15	02:26:54	02:33:20	382959	62ecb2993d7ecd89154af5d4	844939370	1	main_z	7	advance_on_keypress_ZEE	28	stimuli_target_diamondcircles.svg	stimuli_distractor_trianglediamonds.svg	19	yes	57	0	678
6.6.1	win	2022-12-15	02:26:54	02:33:23	385223	62ecb2993d7ecd89154af5d4	844939370	1	main_z	7	main_z	29	stimuli_distractor_diamondtriangles.svg	stimuli_target_circletriangles.svg	13	yes	44	1	930
6.6.1	win	2022-12-15	02:26:54	02:33:23	385223	62ecb2993d7ecd89154af5d4	844939370	1	main_z	7	advance_on_keypress_ZEE	30	stimuli_distractor_diamondtriangles.svg	stimuli_target_circletriangles.svg	13	yes	57	0	492
6.6.1	win	2022-12-15	02:26:54	02:33:25	387222	62ecb2993d7ecd89154af5d4	844939370	1	main_z	7	main_z	31	stimuli_target_squarediamonds.svg	stimuli_distractor_trianglediamonds.svg	4	yes	44	1	845
6.6.1	win	2022-12-15	02:26:54	02:33:25	387222	62ecb2993d7ecd89154af5d4	844939370	1	main_z	7	advance_on_keypress_ZEE	32	stimuli_target_squarediamonds.svg	stimuli_distractor_trianglediamonds.svg	4	yes	57	0	624
6.6.1	win	2022-12-15	02:26:54	02:33:27	389673	62ecb2993d7ecd89154af5d4	844939370	1	main_z	7	main_z	33	stimuli_target_squaretriangles.svg	stimuli_distractor_trianglediamonds.svg	3	yes	44	1	1162
6.6.1	win	2022-12-15	02:26:54	02:33:27	389673	62ecb2993d7ecd89154af5d4	844939370	1	main_z	7	advance_on_keypress_ZEE	34	stimuli_target_squaretriangles.svg	stimuli_distractor_trianglediamonds.svg	3	yes	57	0	493
6.6.1	win	2022-12-15	02:26:54	02:33:30	392827	62ecb2993d7ecd89154af5d4	844939370	1	main_z	7	main_z	35	stimuli_distractor_trianglediamonds.svg	stimuli_distractor_diamondtriangles.svg	36	no	0	1	2000
6.6.1	win	2022-12-15	02:26:54	02:33:30	392827	62ecb2993d7ecd89154af5d4	844939370	1	main_z	7	advance_on_keypress_ZEE	36	stimuli_distractor_trianglediamonds.svg	stimuli_distractor_diamondtriangles.svg	36	no	57	0	577
6.6.1	win	2022-12-15	02:26:54	02:33:32	394888	62ecb2993d7ecd89154af5d4	844939370	1	main_z	7	main_z	37	stimuli_target_squarediamonds.svg	stimuli_distractor_diamondtriangles.svg	8	yes	44	1	828
6.6.1	win	2022-12-15	02:26:54	02:33:32	394888	62ecb2993d7ecd89154af5d4	844939370	1	main_z	7	advance_on_keypress_ZEE	38	stimuli_target_squarediamonds.svg	stimuli_distractor_diamondtriangles.svg	8	yes	57	0	543
6.6.1	win	2022-12-15	02:26:54	02:33:35	397247	62ecb2993d7ecd89154af5d4	844939370	1	main_z	7	main_z	39	stimuli_target_trianglecircles.svg	stimuli_distractor_diamondtriangles.svg	21	yes	44	1	1153
6.6.1	win	2022-12-15	02:26:54	02:33:35	397247	62ecb2993d7ecd89154af5d4	844939370	1	main_z	7	advance_on_keypress_ZEE	40	stimuli_target_trianglecircles.svg	stimuli_distractor_diamondtriangles.svg	21	yes	57	0	488
6.6.1	win	2022-12-15	02:26:54	02:33:37	399243	62ecb2993d7ecd89154af5d4	844939370	1	main_z	7	main_z	41	stimuli_target_squaretriangles.svg	stimuli_distractor_diamondtriangles.svg	7	yes	44	1	867
6.6.1	win	2022-12-15	02:26:54	02:33:37	399243	62ecb2993d7ecd89154af5d4	844939370	1	main_z	7	advance_on_keypress_ZEE	42	stimuli_target_squaretriangles.svg	stimuli_distractor_diamondtriangles.svg	7	yes	57	0	479
6.6.1	win	2022-12-15	02:26:54	02:33:39	401107	62ecb2993d7ecd89154af5d4	844939370	1	main_z	7	main_z	43	stimuli_distractor_trianglediamonds.svg	stimuli_target_squarediamonds.svg	12	yes	44	1	732
6.6.1	win	2022-12-15	02:26:54	02:33:39	401107	62ecb2993d7ecd89154af5d4	844939370	1	main_z	7	advance_on_keypress_ZEE	44	stimuli_distractor_trianglediamonds.svg	stimuli_target_squarediamonds.svg	12	yes	57	0	490
6.6.1	win	2022-12-15	02:26:54	02:33:42	404242	62ecb2993d7ecd89154af5d4	844939370	1	main_z	7	main_z	45	stimuli_distractor_trianglediamonds.svg	stimuli_distractor_trianglediamonds.svg	33	no	0	1	2000
6.6.1	win	2022-12-15	02:26:54	02:33:42	404242	62ecb2993d7ecd89154af5d4	844939370	1	main_z	7	advance_on_keypress_ZEE	46	stimuli_distractor_trianglediamonds.svg	stimuli_distractor_trianglediamonds.svg	33	no	57	0	1257
6.6.1	win	2022-12-15	02:26:54	02:33:45	407760	62ecb2993d7ecd89154af5d4	844939370	1	main_z	7	main_z	47	stimuli_distractor_diamondtriangles.svg	stimuli_distractor_trianglediamonds.svg	37	no	44	0	1618
6.6.1	win	2022-12-15	02:26:54	02:33:45	407760	62ecb2993d7ecd89154af5d4	844939370	1	main_z	7	advance_on_keypress_ZEE	48	stimuli_distractor_diamondtriangles.svg	stimuli_distractor_trianglediamonds.svg	37	no	57	0	582
6.6.1	win	2022-12-15	02:26:54	02:33:48	410992	62ecb2993d7ecd89154af5d4	844939370	1	main_z	7	main_z	49	stimuli_target_trianglesquares.svg	stimuli_distractor_diamondtriangles.svg	22	yes	0	0	2000
6.6.1	win	2022-12-15	02:26:54	02:33:48	410992	62ecb2993d7ecd89154af5d4	844939370	1	main_z	7	advance_on_keypress_ZEE	50	stimuli_target_trianglesquares.svg	stimuli_distractor_diamondtriangles.svg	22	yes	57	0	468
6.6.1	win	2022-12-15	02:26:54	02:33:50	412845	62ecb2993d7ecd89154af5d4	844939370	1	main_z	7	main_z	51	stimuli_target_circletriangles.svg	stimuli_distractor_diamondtriangles.svg	5	yes	44	1	737
6.6.1	win	2022-12-15	02:26:54	02:33:50	412845	62ecb2993d7ecd89154af5d4	844939370	1	main_z	7	advance_on_keypress_ZEE	52	stimuli_target_circletriangles.svg	stimuli_distractor_diamondtriangles.svg	5	yes	57	0	762
6.6.1	win	2022-12-15	02:26:54	02:33:52	414945	62ecb2993d7ecd89154af5d4	844939370	1	main_z	7	main_z	53	stimuli_target_circletriangles.svg	stimuli_distractor_trianglediamonds.svg	1	yes	44	1	687
6.6.1	win	2022-12-15	02:26:54	02:33:52	414945	62ecb2993d7ecd89154af5d4	844939370	1	main_z	7	advance_on_keypress_ZEE	54	stimuli_target_circletriangles.svg	stimuli_distractor_trianglediamonds.svg	1	yes	57	0	913
6.6.1	win	2022-12-15	02:26:54	02:33:55	417409	62ecb2993d7ecd89154af5d4	844939370	1	main_z	7	main_z	55	stimuli_target_diamondcircles.svg	stimuli_distractor_diamondtriangles.svg	23	yes	44	1	901
6.6.1	win	2022-12-15	02:26:54	02:33:55	417409	62ecb2993d7ecd89154af5d4	844939370	1	main_z	7	advance_on_keypress_ZEE	56	stimuli_target_diamondcircles.svg	stimuli_distractor_diamondtriangles.svg	23	yes	57	0	719
6.6.1	win	2022-12-15	02:26:54	02:33:57	419882	62ecb2993d7ecd89154af5d4	844939370	1	main_z	7	main_z	57	stimuli_target_diamondsquares.svg	stimuli_distractor_trianglediamonds.svg	20	yes	44	1	1108
6.6.1	win	2022-12-15	02:26:54	02:33:57	419882	62ecb2993d7ecd89154af5d4	844939370	1	main_z	7	advance_on_keypress_ZEE	58	stimuli_target_diamondsquares.svg	stimuli_distractor_trianglediamonds.svg	20	yes	57	0	550
6.6.1	win	2022-12-15	02:26:54	02:33:59	421969	62ecb2993d7ecd89154af5d4	844939370	1	main_z	7	main_z	59	stimuli_distractor_diamondtriangles.svg	stimuli_target_trianglecircles.svg	29	yes	44	1	877
6.6.1	win	2022-12-15	02:26:54	02:33:59	421969	62ecb2993d7ecd89154af5d4	844939370	1	main_z	7	advance_on_keypress_ZEE	60	stimuli_distractor_diamondtriangles.svg	stimuli_target_trianglecircles.svg	29	yes	57	0	552
6.6.1	win	2022-12-15	02:26:54	02:34:02	424154	62ecb2993d7ecd89154af5d4	844939370	1	main_z	7	main_z	61	stimuli_distractor_trianglediamonds.svg	stimuli_target_circlediamonds.svg	10	yes	44	1	981
6.6.1	win	2022-12-15	02:26:54	02:34:02	424154	62ecb2993d7ecd89154af5d4	844939370	1	main_z	7	advance_on_keypress_ZEE	62	stimuli_distractor_trianglediamonds.svg	stimuli_target_circlediamonds.svg	10	yes	57	0	818
6.6.1	win	2022-12-15	02:26:54	02:34:04	426468	62ecb2993d7ecd89154af5d4	844939370	1	main_z	7	main_z	63	stimuli_distractor_diamondtriangles.svg	stimuli_target_squaretriangles.svg	15	yes	44	1	843
6.6.1	win	2022-12-15	02:26:54	02:34:04	426468	62ecb2993d7ecd89154af5d4	844939370	1	main_z	7	advance_on_keypress_ZEE	64	stimuli_distractor_diamondtriangles.svg	stimuli_target_squaretriangles.svg	15	yes	57	0	624
6.6.1	win	2022-12-15	02:26:54	02:34:07	429740	62ecb2993d7ecd89154af5d4	844939370	1	main_z	7	main_z	65	stimuli_distractor_trianglediamonds.svg	stimuli_distractor_diamondtriangles.svg	35	no	0	1	2000
6.6.1	win	2022-12-15	02:26:54	02:34:07	429740	62ecb2993d7ecd89154af5d4	844939370	1	main_z	7	advance_on_keypress_ZEE	66	stimuli_distractor_trianglediamonds.svg	stimuli_distractor_diamondtriangles.svg	35	no	57	0	841
6.6.1	win	2022-12-15	02:26:54	02:34:10	432570	62ecb2993d7ecd89154af5d4	844939370	1	main_z	7	main_z	67	stimuli_distractor_trianglediamonds.svg	stimuli_target_squaretriangles.svg	11	yes	44	1	1330
6.6.1	win	2022-12-15	02:26:54	02:34:10	432570	62ecb2993d7ecd89154af5d4	844939370	1	main_z	7	advance_on_keypress_ZEE	68	stimuli_distractor_trianglediamonds.svg	stimuli_target_squaretriangles.svg	11	yes	57	0	510
6.6.1	win	2022-12-15	02:26:54	02:34:13	435159	62ecb2993d7ecd89154af5d4	844939370	1	main_z	7	main_z	69	stimuli_target_diamondsquares.svg	stimuli_distractor_diamondtriangles.svg	24	yes	44	1	1421
6.6.1	win	2022-12-15	02:26:54	02:34:13	435159	62ecb2993d7ecd89154af5d4	844939370	1	main_z	7	advance_on_keypress_ZEE	70	stimuli_target_diamondsquares.svg	stimuli_distractor_diamondtriangles.svg	24	yes	57	0	426
6.6.1	win	2022-12-15	02:26:54	02:34:15	437157	62ecb2993d7ecd89154af5d4	844939370	1	main_z	7	main_z	71	stimuli_distractor_diamondtriangles.svg	stimuli_target_circlediamonds.svg	14	yes	44	1	918
6.6.1	win	2022-12-15	02:26:54	02:34:15	437157	62ecb2993d7ecd89154af5d4	844939370	1	main_z	7	advance_on_keypress_ZEE	72	stimuli_distractor_diamondtriangles.svg	stimuli_target_circlediamonds.svg	14	yes	57	0	966
6.6.1	win	2022-12-15	02:26:54	02:34:18	440772	62ecb2993d7ecd89154af5d4	844939370	1	main_z	7	main_z	73	stimuli_distractor_diamondtriangles.svg	stimuli_distractor_trianglediamonds.svg	38	no	0	1	2000
6.6.1	win	2022-12-15	02:26:54	02:34:18	440772	62ecb2993d7ecd89154af5d4	844939370	1	main_z	7	advance_on_keypress_ZEE	74	stimuli_distractor_diamondtriangles.svg	stimuli_distractor_trianglediamonds.svg	38	no	57	0	13
6.6.1	win	2022-12-15	02:26:54	02:34:20	442775	62ecb2993d7ecd89154af5d4	844939370	1	main_z	7	main_z	75	stimuli_distractor_trianglediamonds.svg	stimuli_target_circletriangles.svg	9	yes	44	1	1337
6.6.1	win	2022-12-15	02:26:54	02:34:20	442775	62ecb2993d7ecd89154af5d4	844939370	1	main_z	7	advance_on_keypress_ZEE	76	stimuli_distractor_trianglediamonds.svg	stimuli_target_circletriangles.svg	9	yes	57	0	562
6.6.1	win	2022-12-15	02:26:54	02:34:23	445071	62ecb2993d7ecd89154af5d4	844939370	1	main_z	7	main_z	77	stimuli_target_trianglecircles.svg	stimuli_distractor_trianglediamonds.svg	17	yes	44	1	1084
6.6.1	win	2022-12-15	02:26:54	02:34:23	445071	62ecb2993d7ecd89154af5d4	844939370	1	main_z	7	advance_on_keypress_ZEE	78	stimuli_target_trianglecircles.svg	stimuli_distractor_trianglediamonds.svg	17	yes	57	0	538
6.6.1	win	2022-12-15	02:26:54	02:34:26	448254	62ecb2993d7ecd89154af5d4	844939370	1	main_z	7	main_z	79	stimuli_distractor_diamondtriangles.svg	stimuli_target_diamondcircles.svg	31	yes	0	0	2000
6.6.1	win	2022-12-15	02:26:54	02:34:26	448254	62ecb2993d7ecd89154af5d4	844939370	1	main_z	7	advance_on_keypress_ZEE	80	stimuli_distractor_diamondtriangles.svg	stimuli_target_diamondcircles.svg	31	yes	57	0	533
6.6.1	win	2022-12-15	02:26:54	02:34:28	450306	62ecb2993d7ecd89154af5d4	844939370	1	main_z	7	main_z	81	stimuli_distractor_trianglediamonds.svg	stimuli_target_circlediamonds.svg	10	yes	44	1	869
6.6.1	win	2022-12-15	02:26:54	02:34:28	450306	62ecb2993d7ecd89154af5d4	844939370	1	main_z	7	advance_on_keypress_ZEE	82	stimuli_distractor_trianglediamonds.svg	stimuli_target_circlediamonds.svg	10	yes	57	0	593
6.6.1	win	2022-12-15	02:26:54	02:34:30	452462	62ecb2993d7ecd89154af5d4	844939370	1	main_z	7	main_z	83	stimuli_target_circlediamonds.svg	stimuli_distractor_diamondtriangles.svg	6	yes	44	1	909
6.6.1	win	2022-12-15	02:26:54	02:34:30	452462	62ecb2993d7ecd89154af5d4	844939370	1	main_z	7	advance_on_keypress_ZEE	84	stimuli_target_circlediamonds.svg	stimuli_distractor_diamondtriangles.svg	6	yes	57	0	564
6.6.1	win	2022-12-15	02:26:54	02:34:32	454521	62ecb2993d7ecd89154af5d4	844939370	1	main_z	7	main_z	85	stimuli_distractor_diamondtriangles.svg	stimuli_target_squarediamonds.svg	16	yes	44	1	834
6.6.1	win	2022-12-15	02:26:54	02:34:32	454521	62ecb2993d7ecd89154af5d4	844939370	1	main_z	7	advance_on_keypress_ZEE	86	stimuli_distractor_diamondtriangles.svg	stimuli_target_squarediamonds.svg	16	yes	57	0	485
6.6.1	win	2022-12-15	02:26:54	02:34:35	457653	62ecb2993d7ecd89154af5d4	844939370	1	main_z	7	main_z	87	stimuli_distractor_trianglediamonds.svg	stimuli_distractor_trianglediamonds.svg	33	no	0	1	2000
6.6.1	win	2022-12-15	02:26:54	02:34:35	457653	62ecb2993d7ecd89154af5d4	844939370	1	main_z	7	advance_on_keypress_ZEE	88	stimuli_distractor_trianglediamonds.svg	stimuli_distractor_trianglediamonds.svg	33	no	57	0	500
6.6.1	win	2022-12-15	02:26:54	02:34:37	459631	62ecb2993d7ecd89154af5d4	844939370	1	main_z	7	main_z	89	stimuli_distractor_trianglediamonds.svg	stimuli_target_diamondcircles.svg	27	yes	44	1	828
6.6.1	win	2022-12-15	02:26:54	02:34:37	459631	62ecb2993d7ecd89154af5d4	844939370	1	main_z	7	advance_on_keypress_ZEE	90	stimuli_distractor_trianglediamonds.svg	stimuli_target_diamondcircles.svg	27	yes	57	0	506
6.6.1	win	2022-12-15	02:26:54	02:34:40	462249	62ecb2993d7ecd89154af5d4	844939370	1	main_z	7	main_z	91	stimuli_distractor_trianglediamonds.svg	stimuli_distractor_diamondtriangles.svg	35	no	44	0	1464
6.6.1	win	2022-12-15	02:26:54	02:34:40	462249	62ecb2993d7ecd89154af5d4	844939370	1	main_z	7	advance_on_keypress_ZEE	92	stimuli_distractor_trianglediamonds.svg	stimuli_distractor_diamondtriangles.svg	35	no	57	0	344
6.6.1	win	2022-12-15	02:26:54	02:34:42	464939	62ecb2993d7ecd89154af5d4	844939370	1	main_z	7	main_z	93	stimuli_target_diamondcircles.svg	stimuli_distractor_trianglediamonds.svg	19	yes	44	1	1686
6.6.1	win	2022-12-15	02:26:54	02:34:42	464939	62ecb2993d7ecd89154af5d4	844939370	1	main_z	7	advance_on_keypress_ZEE	94	stimuli_target_diamondcircles.svg	stimuli_distractor_trianglediamonds.svg	19	yes	57	0	352
6.6.1	win	2022-12-15	02:26:54	02:34:45	467888	62ecb2993d7ecd89154af5d4	844939370	1	main_z	7	main_z	95	stimuli_target_squaretriangles.svg	stimuli_distractor_diamondtriangles.svg	7	yes	44	1	1951
6.6.1	win	2022-12-15	02:26:54	02:34:45	467888	62ecb2993d7ecd89154af5d4	844939370	1	main_z	7	advance_on_keypress_ZEE	96	stimuli_target_squaretriangles.svg	stimuli_distractor_diamondtriangles.svg	7	yes	57	0	501
6.6.1	win	2022-12-15	02:26:54	02:34:47	470035	62ecb2993d7ecd89154af5d4	844939370	1	main_z	7	main_z	97	stimuli_target_circletriangles.svg	stimuli_distractor_trianglediamonds.svg	1	yes	44	1	1000
6.6.1	win	2022-12-15	02:26:54	02:34:47	470035	62ecb2993d7ecd89154af5d4	844939370	1	main_z	7	advance_on_keypress_ZEE	98	stimuli_target_circletriangles.svg	stimuli_distractor_trianglediamonds.svg	1	yes	57	0	491
6.6.1	win	2022-12-15	02:26:54	02:34:51	473168	62ecb2993d7ecd89154af5d4	844939370	1	main_z	7	main_z	99	stimuli_target_trianglesquares.svg	stimuli_distractor_diamondtriangles.svg	22	yes	0	0	2000
6.6.1	win	2022-12-15	02:26:54	02:34:51	473168	62ecb2993d7ecd89154af5d4	844939370	1	main_z	7	advance_on_keypress_ZEE	100	stimuli_target_trianglesquares.svg	stimuli_distractor_diamondtriangles.svg	22	yes	57	0	968
6.6.1	win	2022-12-15	02:26:54	02:34:54	476085	62ecb2993d7ecd89154af5d4	844939370	1	main_z	7	main_z	101	stimuli_distractor_diamondtriangles.svg	stimuli_target_circlediamonds.svg	14	yes	44	1	1300
6.6.1	win	2022-12-15	02:26:54	02:34:54	476085	62ecb2993d7ecd89154af5d4	844939370	1	main_z	7	advance_on_keypress_ZEE	102	stimuli_distractor_diamondtriangles.svg	stimuli_target_circlediamonds.svg	14	yes	57	0	420
6.6.1	win	2022-12-15	02:26:54	02:34:56	478089	62ecb2993d7ecd89154af5d4	844939370	1	main_z	7	main_z	103	stimuli_target_squarediamonds.svg	stimuli_distractor_trianglediamonds.svg	4	yes	44	1	938
6.6.1	win	2022-12-15	02:26:54	02:34:56	478089	62ecb2993d7ecd89154af5d4	844939370	1	main_z	7	advance_on_keypress_ZEE	104	stimuli_target_squarediamonds.svg	stimuli_distractor_trianglediamonds.svg	4	yes	57	0	423
6.6.1	win	2022-12-15	02:26:54	02:34:59	481151	62ecb2993d7ecd89154af5d4	844939370	1	main_z	7	main_z	105	stimuli_distractor_trianglediamonds.svg	stimuli_distractor_diamondtriangles.svg	36	no	0	1	2000
6.6.1	win	2022-12-15	02:26:54	02:34:59	481151	62ecb2993d7ecd89154af5d4	844939370	1	main_z	7	advance_on_keypress_ZEE	106	stimuli_distractor_trianglediamonds.svg	stimuli_distractor_diamondtriangles.svg	36	no	57	0	1119
6.6.1	win	2022-12-15	02:26:54	02:35:02	484260	62ecb2993d7ecd89154af5d4	844939370	1	main_z	7	main_z	107	stimuli_distractor_diamondtriangles.svg	stimuli_target_trianglesquares.svg	30	yes	44	1	1342
6.6.1	win	2022-12-15	02:26:54	02:35:02	484260	62ecb2993d7ecd89154af5d4	844939370	1	main_z	7	advance_on_keypress_ZEE	108	stimuli_distractor_diamondtriangles.svg	stimuli_target_trianglesquares.svg	30	yes	57	0	396
6.6.1	win	2022-12-15	02:26:54	02:35:04	486272	62ecb2993d7ecd89154af5d4	844939370	1	main_z	7	main_z	109	stimuli_target_squaretriangles.svg	stimuli_distractor_trianglediamonds.svg	3	yes	44	1	955
6.6.1	win	2022-12-15	02:26:54	02:35:04	486272	62ecb2993d7ecd89154af5d4	844939370	1	main_z	7	advance_on_keypress_ZEE	110	stimuli_target_squaretriangles.svg	stimuli_distractor_trianglediamonds.svg	3	yes	57	0	538
6.6.1	win	2022-12-15	02:26:54	02:35:06	488519	62ecb2993d7ecd89154af5d4	844939370	1	main_z	7	main_z	111	stimuli_distractor_trianglediamonds.svg	stimuli_target_trianglecircles.svg	25	yes	44	1	1069
6.6.1	win	2022-12-15	02:26:54	02:35:06	488519	62ecb2993d7ecd89154af5d4	844939370	1	main_z	7	advance_on_keypress_ZEE	112	stimuli_distractor_trianglediamonds.svg	stimuli_target_trianglecircles.svg	25	yes	57	0	458
6.6.1	win	2022-12-15	02:26:54	02:35:08	490480	62ecb2993d7ecd89154af5d4	844939370	1	main_z	7	main_z	113	stimuli_target_trianglecircles.svg	stimuli_distractor_trianglediamonds.svg	17	yes	44	1	847
6.6.1	win	2022-12-15	02:26:54	02:35:08	490480	62ecb2993d7ecd89154af5d4	844939370	1	main_z	7	advance_on_keypress_ZEE	114	stimuli_target_trianglecircles.svg	stimuli_distractor_trianglediamonds.svg	17	yes	57	0	395
6.6.1	win	2022-12-15	02:26:54	02:35:10	492821	62ecb2993d7ecd89154af5d4	844939370	1	main_z	7	main_z	115	stimuli_distractor_trianglediamonds.svg	stimuli_target_squaretriangles.svg	11	yes	44	1	1288
6.6.1	win	2022-12-15	02:26:54	02:35:10	492821	62ecb2993d7ecd89154af5d4	844939370	1	main_z	7	advance_on_keypress_ZEE	116	stimuli_distractor_trianglediamonds.svg	stimuli_target_squaretriangles.svg	11	yes	57	0	357
6.6.1	win	2022-12-15	02:26:54	02:35:13	495103	62ecb2993d7ecd89154af5d4	844939370	1	main_z	7	main_z	117	stimuli_target_diamondsquares.svg	stimuli_distractor_diamondtriangles.svg	24	yes	44	1	1288
6.6.1	win	2022-12-15	02:26:54	02:35:13	495103	62ecb2993d7ecd89154af5d4	844939370	1	main_z	7	advance_on_keypress_ZEE	118	stimuli_target_diamondsquares.svg	stimuli_distractor_diamondtriangles.svg	24	yes	57	0	356
6.6.1	win	2022-12-15	02:26:54	02:35:16	498100	62ecb2993d7ecd89154af5d4	844939370	1	main_z	7	main_z	119	stimuli_distractor_trianglediamonds.svg	stimuli_distractor_trianglediamonds.svg	34	no	0	1	2000
6.6.1	win	2022-12-15	02:26:54	02:35:16	498100	62ecb2993d7ecd89154af5d4	844939370	1	main_z	7	advance_on_keypress_ZEE	120	stimuli_distractor_trianglediamonds.svg	stimuli_distractor_trianglediamonds.svg	34	no	57	0	305
6.6.1	win	2022-12-15	02:26:54	02:35:17	499114	62ecb2993d7ecd89154af5d4	844939370	1	main_z	7	main_z	121	stimuli_target_circletriangles.svg	stimuli_distractor_diamondtriangles.svg	5	yes	44	1	65
6.6.1	win	2022-12-15	02:26:54	02:35:17	499114	62ecb2993d7ecd89154af5d4	844939370	1	main_z	7	advance_on_keypress_ZEE	122	stimuli_target_circletriangles.svg	stimuli_distractor_diamondtriangles.svg	5	yes	57	0	754
6.6.1	win	2022-12-15	02:26:54	02:35:19	501326	62ecb2993d7ecd89154af5d4	844939370	1	main_z	7	main_z	123	stimuli_distractor_diamondtriangles.svg	stimuli_target_circletriangles.svg	13	yes	44	1	810
6.6.1	win	2022-12-15	02:26:54	02:35:19	501326	62ecb2993d7ecd89154af5d4	844939370	1	main_z	7	advance_on_keypress_ZEE	124	stimuli_distractor_diamondtriangles.svg	stimuli_target_circletriangles.svg	13	yes	57	0	572
6.6.1	win	2022-12-15	02:26:54	02:35:22	504549	62ecb2993d7ecd89154af5d4	844939370	1	main_z	7	main_z	125	stimuli_distractor_diamondtriangles.svg	stimuli_distractor_diamondtriangles.svg	40	no	0	1	2000
6.6.1	win	2022-12-15	02:26:54	02:35:22	504549	62ecb2993d7ecd89154af5d4	844939370	1	main_z	7	advance_on_keypress_ZEE	126	stimuli_distractor_diamondtriangles.svg	stimuli_distractor_diamondtriangles.svg	40	no	57	0	469
6.6.1	win	2022-12-15	02:26:54	02:35:24	506705	62ecb2993d7ecd89154af5d4	844939370	1	main_z	7	main_z	127	stimuli_distractor_diamondtriangles.svg	stimuli_target_diamondsquares.svg	32	yes	44	1	1041
6.6.1	win	2022-12-15	02:26:54	02:35:24	506705	62ecb2993d7ecd89154af5d4	844939370	1	main_z	7	advance_on_keypress_ZEE	128	stimuli_distractor_diamondtriangles.svg	stimuli_target_diamondsquares.svg	32	yes	57	0	363
6.6.1	win	2022-12-15	02:26:54	02:35:26	508664	62ecb2993d7ecd89154af5d4	844939370	1	main_z	7	main_z	129	stimuli_target_diamondcircles.svg	stimuli_distractor_diamondtriangles.svg	23	yes	44	1	934
6.6.1	win	2022-12-15	02:26:54	02:35:26	508664	62ecb2993d7ecd89154af5d4	844939370	1	main_z	7	advance_on_keypress_ZEE	130	stimuli_target_diamondcircles.svg	stimuli_distractor_diamondtriangles.svg	23	yes	57	0	473
6.6.1	win	2022-12-15	02:26:54	02:35:28	510434	62ecb2993d7ecd89154af5d4	844939370	1	main_z	7	main_z	131	stimuli_distractor_diamondtriangles.svg	stimuli_target_diamondcircles.svg	31	yes	44	1	653
6.6.1	win	2022-12-15	02:26:54	02:35:28	510434	62ecb2993d7ecd89154af5d4	844939370	1	main_z	7	advance_on_keypress_ZEE	132	stimuli_distractor_diamondtriangles.svg	stimuli_target_diamondcircles.svg	31	yes	57	0	409
6.6.1	win	2022-12-15	02:26:54	02:35:30	512204	62ecb2993d7ecd89154af5d4	844939370	1	main_z	7	main_z	133	stimuli_target_diamondsquares.svg	stimuli_distractor_trianglediamonds.svg	20	yes	44	1	708
6.6.1	win	2022-12-15	02:26:54	02:35:30	512204	62ecb2993d7ecd89154af5d4	844939370	1	main_z	7	advance_on_keypress_ZEE	134	stimuli_target_diamondsquares.svg	stimuli_distractor_trianglediamonds.svg	20	yes	57	0	358
6.6.1	win	2022-12-15	02:26:54	02:35:31	514032	62ecb2993d7ecd89154af5d4	844939370	1	main_z	7	main_z	135	stimuli_distractor_trianglediamonds.svg	stimuli_target_trianglesquares.svg	26	yes	44	1	801
6.6.1	win	2022-12-15	02:26:54	02:35:31	514032	62ecb2993d7ecd89154af5d4	844939370	1	main_z	7	advance_on_keypress_ZEE	136	stimuli_distractor_trianglediamonds.svg	stimuli_target_trianglesquares.svg	26	yes	57	0	387
6.6.1	win	2022-12-15	02:26:54	02:35:33	515781	62ecb2993d7ecd89154af5d4	844939370	1	main_z	7	main_z	137	stimuli_target_squarediamonds.svg	stimuli_distractor_diamondtriangles.svg	8	yes	44	1	717
6.6.1	win	2022-12-15	02:26:54	02:35:33	515781	62ecb2993d7ecd89154af5d4	844939370	1	main_z	7	advance_on_keypress_ZEE	138	stimuli_target_squarediamonds.svg	stimuli_distractor_diamondtriangles.svg	8	yes	57	0	408
6.6.1	win	2022-12-15	02:26:54	02:35:35	517915	62ecb2993d7ecd89154af5d4	844939370	1	main_z	7	main_z	139	stimuli_distractor_diamondtriangles.svg	stimuli_distractor_trianglediamonds.svg	38	no	44	0	1068
6.6.1	win	2022-12-15	02:26:54	02:35:35	517915	62ecb2993d7ecd89154af5d4	844939370	1	main_z	7	advance_on_keypress_ZEE	140	stimuli_distractor_diamondtriangles.svg	stimuli_distractor_trianglediamonds.svg	38	no	57	0	304
6.6.1	win	2022-12-15	02:26:54	02:35:38	520863	62ecb2993d7ecd89154af5d4	844939370	1	main_z	7	main_z	141	stimuli_distractor_diamondtriangles.svg	stimuli_distractor_diamondtriangles.svg	39	no	0	1	2000
6.6.1	win	2022-12-15	02:26:54	02:35:38	520863	62ecb2993d7ecd89154af5d4	844939370	1	main_z	7	advance_on_keypress_ZEE	142	stimuli_distractor_diamondtriangles.svg	stimuli_distractor_diamondtriangles.svg	39	no	57	0	313
6.6.1	win	2022-12-15	02:26:54	02:35:40	522582	62ecb2993d7ecd89154af5d4	844939370	1	main_z	7	main_z	143	stimuli_target_trianglecircles.svg	stimuli_distractor_diamondtriangles.svg	21	yes	44	1	753
6.6.1	win	2022-12-15	02:26:54	02:35:40	522582	62ecb2993d7ecd89154af5d4	844939370	1	main_z	7	advance_on_keypress_ZEE	144	stimuli_target_trianglecircles.svg	stimuli_distractor_diamondtriangles.svg	21	yes	57	0	378
6.6.1	win	2022-12-15	02:26:54	02:35:42	524178	62ecb2993d7ecd89154af5d4	844939370	1	main_z	7	main_z	145	stimuli_distractor_diamondtriangles.svg	stimuli_target_trianglecircles.svg	29	yes	44	1	565
6.6.1	win	2022-12-15	02:26:54	02:35:42	524178	62ecb2993d7ecd89154af5d4	844939370	1	main_z	7	advance_on_keypress_ZEE	146	stimuli_distractor_diamondtriangles.svg	stimuli_target_trianglecircles.svg	29	yes	57	0	389
6.6.1	win	2022-12-15	02:26:54	02:35:43	525848	62ecb2993d7ecd89154af5d4	844939370	1	main_z	7	main_z	147	stimuli_distractor_trianglediamonds.svg	stimuli_target_circletriangles.svg	9	yes	44	1	636
6.6.1	win	2022-12-15	02:26:54	02:35:43	525848	62ecb2993d7ecd89154af5d4	844939370	1	main_z	7	advance_on_keypress_ZEE	148	stimuli_distractor_trianglediamonds.svg	stimuli_target_circletriangles.svg	9	yes	57	0	333
6.6.1	win	2022-12-15	02:26:54	02:35:45	527614	62ecb2993d7ecd89154af5d4	844939370	1	main_z	7	main_z	149	stimuli_distractor_diamondtriangles.svg	stimuli_target_squaretriangles.svg	15	yes	44	1	785
6.6.1	win	2022-12-15	02:26:54	02:35:45	527614	62ecb2993d7ecd89154af5d4	844939370	1	main_z	7	advance_on_keypress_ZEE	150	stimuli_distractor_diamondtriangles.svg	stimuli_target_squaretriangles.svg	15	yes	57	0	333
6.6.1	win	2022-12-15	02:26:54	02:35:47	529470	62ecb2993d7ecd89154af5d4	844939370	1	main_z	7	main_z	151	stimuli_distractor_trianglediamonds.svg	stimuli_target_diamondsquares.svg	28	yes	44	1	874
6.6.1	win	2022-12-15	02:26:54	02:35:47	529470	62ecb2993d7ecd89154af5d4	844939370	1	main_z	7	advance_on_keypress_ZEE	152	stimuli_distractor_trianglediamonds.svg	stimuli_target_diamondsquares.svg	28	yes	57	0	275
6.6.1	win	2022-12-15	02:26:54	02:35:50	532412	62ecb2993d7ecd89154af5d4	844939370	1	main_z	7	main_z	153	stimuli_distractor_diamondtriangles.svg	stimuli_distractor_trianglediamonds.svg	37	no	0	1	2000
6.6.1	win	2022-12-15	02:26:54	02:35:50	532412	62ecb2993d7ecd89154af5d4	844939370	1	main_z	7	advance_on_keypress_ZEE	154	stimuli_distractor_diamondtriangles.svg	stimuli_distractor_trianglediamonds.svg	37	no	57	0	756
6.6.1	win	2022-12-15	02:26:54	02:35:52	534553	62ecb2993d7ecd89154af5d4	844939370	1	main_z	7	main_z	155	stimuli_target_circlediamonds.svg	stimuli_distractor_trianglediamonds.svg	2	yes	44	1	742
6.6.1	win	2022-12-15	02:26:54	02:35:52	534553	62ecb2993d7ecd89154af5d4	844939370	1	main_z	7	advance_on_keypress_ZEE	156	stimuli_target_circlediamonds.svg	stimuli_distractor_trianglediamonds.svg	2	yes	57	0	347
6.6.1	win	2022-12-15	02:26:54	02:35:54	536566	62ecb2993d7ecd89154af5d4	844939370	1	main_z	7	main_z	157	stimuli_distractor_trianglediamonds.svg	stimuli_target_squarediamonds.svg	12	yes	44	1	1005
6.6.1	win	2022-12-15	02:26:54	02:35:54	536566	62ecb2993d7ecd89154af5d4	844939370	1	main_z	7	advance_on_keypress_ZEE	158	stimuli_distractor_trianglediamonds.svg	stimuli_target_squarediamonds.svg	12	yes	57	0	328
6.6.1	win	2022-12-15	02:26:54	02:35:56	538408	62ecb2993d7ecd89154af5d4	844939370	1	main_z	7	main_z	159	stimuli_target_trianglesquares.svg	stimuli_distractor_trianglediamonds.svg	18	yes	44	1	863
6.6.1	win	2022-12-15	02:26:54	02:35:56	538408	62ecb2993d7ecd89154af5d4	844939370	1	main_z	7	advance_on_keypress_ZEE	160	stimuli_target_trianglesquares.svg	stimuli_distractor_trianglediamonds.svg	18	yes	57	0	272
6.6.1	win	2022-12-15	02:26:54	02:36:41	583985	62ecb2993d7ecd89154af5d4	844939370	1	practice_slash	9	practice_slash	1	stimuli_target_diamondsquares.svg	stimuli_distractor_diamondtriangles.svg	3	yes	53	1	1359
6.6.1	win	2022-12-15	02:26:54	02:36:41	583985	62ecb2993d7ecd89154af5d4	844939370	1	practice_slash	9	advance_on_keypress_SLASH	2	stimuli_target_diamondsquares.svg	stimuli_distractor_diamondtriangles.svg	3	yes	57	0	2520
6.6.1	win	2022-12-15	02:26:54	02:36:47	589260	62ecb2993d7ecd89154af5d4	844939370	1	practice_slash	9	practice_slash	3	stimuli_distractor_trianglediamonds.svg	stimuli_target_diamondcircles.svg	12	yes	53	1	1100
6.6.1	win	2022-12-15	02:26:54	02:36:47	589260	62ecb2993d7ecd89154af5d4	844939370	1	practice_slash	9	advance_on_keypress_SLASH	4	stimuli_distractor_trianglediamonds.svg	stimuli_target_diamondcircles.svg	12	yes	57	0	142
6.6.1	win	2022-12-15	02:26:54	02:36:49	591829	62ecb2993d7ecd89154af5d4	844939370	1	practice_slash	9	practice_slash	5	stimuli_target_squarediamonds.svg	stimuli_distractor_trianglediamonds.svg	5	yes	53	1	768
6.6.1	win	2022-12-15	02:26:54	02:36:49	591829	62ecb2993d7ecd89154af5d4	844939370	1	practice_slash	9	advance_on_keypress_SLASH	6	stimuli_target_squarediamonds.svg	stimuli_distractor_trianglediamonds.svg	5	yes	57	0	465
6.6.1	win	2022-12-15	02:26:54	02:36:52	595006	62ecb2993d7ecd89154af5d4	844939370	1	practice_slash	9	practice_slash	7	stimuli_distractor_diamondtriangles.svg	stimuli_distractor_trianglediamonds.svg	14	no	53	0	1046
6.6.1	win	2022-12-15	02:26:54	02:36:52	595006	62ecb2993d7ecd89154af5d4	844939370	1	practice_slash	9	advance_on_keypress_SLASH	8	stimuli_distractor_diamondtriangles.svg	stimuli_distractor_trianglediamonds.svg	14	no	57	0	879
6.6.1	win	2022-12-15	02:26:54	02:36:57	599542	62ecb2993d7ecd89154af5d4	844939370	1	practice_slash	9	practice_slash	9	stimuli_distractor_trianglediamonds.svg	stimuli_distractor_trianglediamonds.svg	15	no	0	1	2000
6.6.1	win	2022-12-15	02:26:54	02:36:57	599542	62ecb2993d7ecd89154af5d4	844939370	1	practice_slash	9	advance_on_keypress_SLASH	10	stimuli_distractor_trianglediamonds.svg	stimuli_distractor_trianglediamonds.svg	15	no	57	0	702
6.6.1	win	2022-12-15	02:26:54	02:37:00	602737	62ecb2993d7ecd89154af5d4	844939370	1	practice_slash	9	practice_slash	11	stimuli_distractor_diamondtriangles.svg	stimuli_target_circletriangles.svg	7	yes	53	1	830
6.6.1	win	2022-12-15	02:26:54	02:37:00	602737	62ecb2993d7ecd89154af5d4	844939370	1	practice_slash	9	advance_on_keypress_SLASH	12	stimuli_distractor_diamondtriangles.svg	stimuli_target_circletriangles.svg	7	yes	57	0	516
6.6.1	win	2022-12-15	02:26:54	02:37:03	605516	62ecb2993d7ecd89154af5d4	844939370	1	practice_slash	9	practice_slash	13	stimuli_target_circlediamonds.svg	stimuli_distractor_trianglediamonds.svg	4	yes	53	1	609
6.6.1	win	2022-12-15	02:26:54	02:37:03	605516	62ecb2993d7ecd89154af5d4	844939370	1	practice_slash	9	advance_on_keypress_SLASH	14	stimuli_target_circlediamonds.svg	stimuli_distractor_trianglediamonds.svg	4	yes	57	0	279
6.6.1	win	2022-12-15	02:26:54	02:37:06	608287	62ecb2993d7ecd89154af5d4	844939370	1	practice_slash	9	practice_slash	15	stimuli_distractor_diamondtriangles.svg	stimuli_target_diamondcircles.svg	8	yes	53	1	829
6.6.1	win	2022-12-15	02:26:54	02:37:06	608287	62ecb2993d7ecd89154af5d4	844939370	1	practice_slash	9	advance_on_keypress_SLASH	16	stimuli_distractor_diamondtriangles.svg	stimuli_target_diamondcircles.svg	8	yes	57	0	468
6.6.1	win	2022-12-15	02:26:54	02:37:09	611097	62ecb2993d7ecd89154af5d4	844939370	1	practice_slash	9	practice_slash	17	stimuli_target_circlediamonds.svg	stimuli_distractor_diamondtriangles.svg	1	yes	53	1	690
6.6.1	win	2022-12-15	02:26:54	02:37:09	611097	62ecb2993d7ecd89154af5d4	844939370	1	practice_slash	9	advance_on_keypress_SLASH	18	stimuli_target_circlediamonds.svg	stimuli_distractor_diamondtriangles.svg	1	yes	57	0	490
6.6.1	win	2022-12-15	02:26:54	02:37:11	614017	62ecb2993d7ecd89154af5d4	844939370	1	practice_slash	9	practice_slash	19	stimuli_distractor_trianglediamonds.svg	stimuli_target_squarediamonds.svg	11	yes	53	1	761
6.6.1	win	2022-12-15	02:26:54	02:37:11	614017	62ecb2993d7ecd89154af5d4	844939370	1	practice_slash	9	advance_on_keypress_SLASH	20	stimuli_distractor_trianglediamonds.svg	stimuli_target_squarediamonds.svg	11	yes	57	0	617
6.6.1	win	2022-12-15	02:26:54	02:37:14	616860	62ecb2993d7ecd89154af5d4	844939370	1	practice_slash	9	practice_slash	21	stimuli_target_squarediamonds.svg	stimuli_distractor_diamondtriangles.svg	2	yes	53	1	570
6.6.1	win	2022-12-15	02:26:54	02:37:14	616860	62ecb2993d7ecd89154af5d4	844939370	1	practice_slash	9	advance_on_keypress_SLASH	22	stimuli_target_squarediamonds.svg	stimuli_distractor_diamondtriangles.svg	2	yes	57	0	445
6.6.1	win	2022-12-15	02:26:54	02:37:17	619813	62ecb2993d7ecd89154af5d4	844939370	1	practice_slash	9	practice_slash	23	stimuli_distractor_diamondtriangles.svg	stimuli_target_trianglecircles.svg	9	yes	53	1	839
6.6.1	win	2022-12-15	02:26:54	02:37:17	619813	62ecb2993d7ecd89154af5d4	844939370	1	practice_slash	9	advance_on_keypress_SLASH	24	stimuli_distractor_diamondtriangles.svg	stimuli_target_trianglecircles.svg	9	yes	57	0	457
6.6.1	win	2022-12-15	02:26:54	02:37:20	622982	62ecb2993d7ecd89154af5d4	844939370	1	practice_slash	9	practice_slash	25	stimuli_distractor_trianglediamonds.svg	stimuli_distractor_diamondtriangles.svg	16	no	53	0	1043
6.6.1	win	2022-12-15	02:26:54	02:37:20	622982	62ecb2993d7ecd89154af5d4	844939370	1	practice_slash	9	advance_on_keypress_SLASH	26	stimuli_distractor_trianglediamonds.svg	stimuli_distractor_diamondtriangles.svg	16	no	57	0	637
6.6.1	win	2022-12-15	02:26:54	02:37:25	627272	62ecb2993d7ecd89154af5d4	844939370	1	practice_slash	9	practice_slash	27	stimuli_distractor_diamondtriangles.svg	stimuli_distractor_diamondtriangles.svg	13	no	0	1	2000
6.6.1	win	2022-12-15	02:26:54	02:37:25	627272	62ecb2993d7ecd89154af5d4	844939370	1	practice_slash	9	advance_on_keypress_SLASH	28	stimuli_distractor_diamondtriangles.svg	stimuli_distractor_diamondtriangles.svg	13	no	57	0	770
6.6.1	win	2022-12-15	02:26:54	02:37:28	630427	62ecb2993d7ecd89154af5d4	844939370	1	practice_slash	9	practice_slash	29	stimuli_target_diamondsquares.svg	stimuli_distractor_trianglediamonds.svg	6	yes	53	1	721
6.6.1	win	2022-12-15	02:26:54	02:37:28	630427	62ecb2993d7ecd89154af5d4	844939370	1	practice_slash	9	advance_on_keypress_SLASH	30	stimuli_target_diamondsquares.svg	stimuli_distractor_trianglediamonds.svg	6	yes	57	0	438
6.6.1	win	2022-12-15	02:26:54	02:37:31	633314	62ecb2993d7ecd89154af5d4	844939370	1	practice_slash	9	practice_slash	31	stimuli_distractor_trianglediamonds.svg	stimuli_target_circlediamonds.svg	10	yes	53	1	775
6.6.1	win	2022-12-15	02:26:54	02:37:31	633314	62ecb2993d7ecd89154af5d4	844939370	1	practice_slash	9	advance_on_keypress_SLASH	32	stimuli_distractor_trianglediamonds.svg	stimuli_target_circlediamonds.svg	10	yes	57	0	339
6.6.1	win	2022-12-15	02:26:54	02:37:35	637525	62ecb2993d7ecd89154af5d4	844939370	1	main_slash	11	main_slash	1	stimuli_distractor_trianglediamonds.svg	stimuli_target_circletriangles.svg	9	yes	53	1	624
6.6.1	win	2022-12-15	02:26:54	02:37:35	637525	62ecb2993d7ecd89154af5d4	844939370	1	main_slash	11	advance_on_keypress_SLASH	2	stimuli_distractor_trianglediamonds.svg	stimuli_target_circletriangles.svg	9	yes	57	0	715
6.6.1	win	2022-12-15	02:26:54	02:37:37	639855	62ecb2993d7ecd89154af5d4	844939370	1	main_slash	11	main_slash	3	stimuli_distractor_diamondtriangles.svg	stimuli_distractor_trianglediamonds.svg	38	no	53	0	954
6.6.1	win	2022-12-15	02:26:54	02:37:37	639855	62ecb2993d7ecd89154af5d4	844939370	1	main_slash	11	advance_on_keypress_SLASH	4	stimuli_distractor_diamondtriangles.svg	stimuli_distractor_trianglediamonds.svg	38	no	57	0	700
6.6.1	win	2022-12-15	02:26:54	02:37:39	641923	62ecb2993d7ecd89154af5d4	844939370	1	main_slash	11	main_slash	5	stimuli_distractor_diamondtriangles.svg	stimuli_target_trianglecircles.svg	29	yes	53	1	723
6.6.1	win	2022-12-15	02:26:54	02:37:39	641923	62ecb2993d7ecd89154af5d4	844939370	1	main_slash	11	advance_on_keypress_SLASH	6	stimuli_distractor_diamondtriangles.svg	stimuli_target_trianglecircles.svg	29	yes	57	0	633
6.6.1	win	2022-12-15	02:26:54	02:37:41	644001	62ecb2993d7ecd89154af5d4	844939370	1	main_slash	11	main_slash	7	stimuli_target_trianglesquares.svg	stimuli_distractor_diamondtriangles.svg	22	yes	53	1	801
6.6.1	win	2022-12-15	02:26:54	02:37:41	644001	62ecb2993d7ecd89154af5d4	844939370	1	main_slash	11	advance_on_keypress_SLASH	8	stimuli_target_trianglesquares.svg	stimuli_distractor_diamondtriangles.svg	22	yes	57	0	582
6.6.1	win	2022-12-15	02:26:54	02:37:45	647233	62ecb2993d7ecd89154af5d4	844939370	1	main_slash	11	main_slash	9	stimuli_distractor_diamondtriangles.svg	stimuli_distractor_diamondtriangles.svg	39	no	0	1	2000
6.6.1	win	2022-12-15	02:26:54	02:37:45	647233	62ecb2993d7ecd89154af5d4	844939370	1	main_slash	11	advance_on_keypress_SLASH	10	stimuli_distractor_diamondtriangles.svg	stimuli_distractor_diamondtriangles.svg	39	no	57	0	920
6.6.1	win	2022-12-15	02:26:54	02:37:47	649336	62ecb2993d7ecd89154af5d4	844939370	1	main_slash	11	main_slash	11	stimuli_distractor_trianglediamonds.svg	stimuli_target_trianglecircles.svg	25	yes	53	1	537
6.6.1	win	2022-12-15	02:26:54	02:37:47	649336	62ecb2993d7ecd89154af5d4	844939370	1	main_slash	11	advance_on_keypress_SLASH	12	stimuli_distractor_trianglediamonds.svg	stimuli_target_trianglecircles.svg	25	yes	57	0	475
6.6.1	win	2022-12-15	02:26:54	02:37:48	650914	62ecb2993d7ecd89154af5d4	844939370	1	main_slash	11	main_slash	13	stimuli_target_circlediamonds.svg	stimuli_distractor_trianglediamonds.svg	2	yes	53	1	448
6.6.1	win	2022-12-15	02:26:54	02:37:48	650914	62ecb2993d7ecd89154af5d4	844939370	1	main_slash	11	advance_on_keypress_SLASH	14	stimuli_target_circlediamonds.svg	stimuli_distractor_trianglediamonds.svg	2	yes	57	0	464
6.6.1	win	2022-12-15	02:26:54	02:37:50	652437	62ecb2993d7ecd89154af5d4	844939370	1	main_slash	11	main_slash	15	stimuli_distractor_trianglediamonds.svg	stimuli_target_diamondcircles.svg	27	yes	53	1	406
6.6.1	win	2022-12-15	02:26:54	02:37:50	652437	62ecb2993d7ecd89154af5d4	844939370	1	main_slash	11	advance_on_keypress_SLASH	16	stimuli_distractor_trianglediamonds.svg	stimuli_target_diamondcircles.svg	27	yes	57	0	515
6.6.1	win	2022-12-15	02:26:54	02:37:52	654054	62ecb2993d7ecd89154af5d4	844939370	1	main_slash	11	main_slash	17	stimuli_distractor_trianglediamonds.svg	stimuli_target_squarediamonds.svg	12	yes	53	1	455
6.6.1	win	2022-12-15	02:26:54	02:37:52	654054	62ecb2993d7ecd89154af5d4	844939370	1	main_slash	11	advance_on_keypress_SLASH	18	stimuli_distractor_trianglediamonds.svg	stimuli_target_squarediamonds.svg	12	yes	57	0	432
6.6.1	win	2022-12-15	02:26:54	02:37:54	656537	62ecb2993d7ecd89154af5d4	844939370	1	main_slash	11	main_slash	19	stimuli_distractor_diamondtriangles.svg	stimuli_distractor_diamondtriangles.svg	40	no	53	0	1405
6.6.1	win	2022-12-15	02:26:54	02:37:54	656537	62ecb2993d7ecd89154af5d4	844939370	1	main_slash	11	advance_on_keypress_SLASH	20	stimuli_distractor_diamondtriangles.svg	stimuli_distractor_diamondtriangles.svg	40	no	57	0	430
6.6.1	win	2022-12-15	02:26:54	02:37:56	658335	62ecb2993d7ecd89154af5d4	844939370	1	main_slash	11	main_slash	21	stimuli_target_diamondsquares.svg	stimuli_distractor_diamondtriangles.svg	24	yes	53	1	721
6.6.1	win	2022-12-15	02:26:54	02:37:56	658335	62ecb2993d7ecd89154af5d4	844939370	1	main_slash	11	advance_on_keypress_SLASH	22	stimuli_target_diamondsquares.svg	stimuli_distractor_diamondtriangles.svg	24	yes	57	0	370
6.6.1	win	2022-12-15	02:26:54	02:37:58	660489	62ecb2993d7ecd89154af5d4	844939370	1	main_slash	11	main_slash	23	stimuli_distractor_diamondtriangles.svg	stimuli_target_diamondsquares.svg	32	yes	53	1	1141
6.6.1	win	2022-12-15	02:26:54	02:37:58	660489	62ecb2993d7ecd89154af5d4	844939370	1	main_slash	11	advance_on_keypress_SLASH	24	stimuli_distractor_diamondtriangles.svg	stimuli_target_diamondsquares.svg	32	yes	57	0	283
6.6.1	win	2022-12-15	02:26:54	02:38:00	662076	62ecb2993d7ecd89154af5d4	844939370	1	main_slash	11	main_slash	25	stimuli_target_trianglecircles.svg	stimuli_distractor_trianglediamonds.svg	17	yes	53	1	646
6.6.1	win	2022-12-15	02:26:54	02:38:00	662076	62ecb2993d7ecd89154af5d4	844939370	1	main_slash	11	advance_on_keypress_SLASH	26	stimuli_target_trianglecircles.svg	stimuli_distractor_trianglediamonds.svg	17	yes	57	0	361
6.6.1	win	2022-12-15	02:26:54	02:38:01	663702	62ecb2993d7ecd89154af5d4	844939370	1	main_slash	11	main_slash	27	stimuli_distractor_diamondtriangles.svg	stimuli_target_circlediamonds.svg	14	yes	53	1	604
6.6.1	win	2022-12-15	02:26:54	02:38:01	663702	62ecb2993d7ecd89154af5d4	844939370	1	main_slash	11	advance_on_keypress_SLASH	28	stimuli_distractor_diamondtriangles.svg	stimuli_target_circlediamonds.svg	14	yes	57	0	357
6.6.1	win	2022-12-15	02:26:54	02:38:03	665758	62ecb2993d7ecd89154af5d4	844939370	1	main_slash	11	main_slash	29	stimuli_distractor_trianglediamonds.svg	stimuli_target_circlediamonds.svg	10	yes	53	1	1062
6.6.1	win	2022-12-15	02:26:54	02:38:03	665758	62ecb2993d7ecd89154af5d4	844939370	1	main_slash	11	advance_on_keypress_SLASH	30	stimuli_distractor_trianglediamonds.svg	stimuli_target_circlediamonds.svg	10	yes	57	0	283
6.6.1	win	2022-12-15	02:26:54	02:38:05	667357	62ecb2993d7ecd89154af5d4	844939370	1	main_slash	11	main_slash	31	stimuli_distractor_diamondtriangles.svg	stimuli_target_circletriangles.svg	13	yes	53	1	660
6.6.1	win	2022-12-15	02:26:54	02:38:05	667357	62ecb2993d7ecd89154af5d4	844939370	1	main_slash	11	advance_on_keypress_SLASH	32	stimuli_distractor_diamondtriangles.svg	stimuli_target_circletriangles.svg	13	yes	57	0	375
6.6.1	win	2022-12-15	02:26:54	02:38:07	669275	62ecb2993d7ecd89154af5d4	844939370	1	main_slash	11	main_slash	33	stimuli_distractor_trianglediamonds.svg	stimuli_target_diamondsquares.svg	28	yes	53	1	877
6.6.1	win	2022-12-15	02:26:54	02:38:07	669275	62ecb2993d7ecd89154af5d4	844939370	1	main_slash	11	advance_on_keypress_SLASH	34	stimuli_distractor_trianglediamonds.svg	stimuli_target_diamondsquares.svg	28	yes	57	0	274
6.6.1	win	2022-12-15	02:26:54	02:38:08	670905	62ecb2993d7ecd89154af5d4	844939370	1	main_slash	11	main_slash	35	stimuli_target_circletriangles.svg	stimuli_distractor_diamondtriangles.svg	5	yes	53	1	691
6.6.1	win	2022-12-15	02:26:54	02:38:08	670905	62ecb2993d7ecd89154af5d4	844939370	1	main_slash	11	advance_on_keypress_SLASH	36	stimuli_target_circletriangles.svg	stimuli_distractor_diamondtriangles.svg	5	yes	57	0	340
6.6.1	win	2022-12-15	02:26:54	02:38:11	673897	62ecb2993d7ecd89154af5d4	844939370	1	main_slash	11	main_slash	37	stimuli_distractor_trianglediamonds.svg	stimuli_distractor_trianglediamonds.svg	34	no	0	1	2000
6.6.1	win	2022-12-15	02:26:54	02:38:11	673897	62ecb2993d7ecd89154af5d4	844939370	1	main_slash	11	advance_on_keypress_SLASH	38	stimuli_distractor_trianglediamonds.svg	stimuli_distractor_trianglediamonds.svg	34	no	57	0	462
6.6.1	win	2022-12-15	02:26:54	02:38:14	677013	62ecb2993d7ecd89154af5d4	844939370	1	main_slash	11	main_slash	39	stimuli_distractor_trianglediamonds.svg	stimuli_distractor_trianglediamonds.svg	33	no	0	1	2000
6.6.1	win	2022-12-15	02:26:54	02:38:14	677013	62ecb2993d7ecd89154af5d4	844939370	1	main_slash	11	advance_on_keypress_SLASH	40	stimuli_distractor_trianglediamonds.svg	stimuli_distractor_trianglediamonds.svg	33	no	57	0	428
6.6.1	win	2022-12-15	02:26:54	02:38:16	678806	62ecb2993d7ecd89154af5d4	844939370	1	main_slash	11	main_slash	41	stimuli_target_diamondcircles.svg	stimuli_distractor_trianglediamonds.svg	19	yes	53	1	710
6.6.1	win	2022-12-15	02:26:54	02:38:16	678806	62ecb2993d7ecd89154af5d4	844939370	1	main_slash	11	advance_on_keypress_SLASH	42	stimuli_target_diamondcircles.svg	stimuli_distractor_trianglediamonds.svg	19	yes	57	0	335
6.6.1	win	2022-12-15	02:26:54	02:38:18	680526	62ecb2993d7ecd89154af5d4	844939370	1	main_slash	11	main_slash	43	stimuli_target_diamondsquares.svg	stimuli_distractor_trianglediamonds.svg	20	yes	53	1	731
6.6.1	win	2022-12-15	02:26:54	02:38:18	680526	62ecb2993d7ecd89154af5d4	844939370	1	main_slash	11	advance_on_keypress_SLASH	44	stimuli_target_diamondsquares.svg	stimuli_distractor_trianglediamonds.svg	20	yes	57	0	419
6.6.1	win	2022-12-15	02:26:54	02:38:20	682307	62ecb2993d7ecd89154af5d4	844939370	1	main_slash	11	main_slash	45	stimuli_distractor_diamondtriangles.svg	stimuli_target_trianglesquares.svg	30	yes	53	1	711
6.6.1	win	2022-12-15	02:26:54	02:38:20	682307	62ecb2993d7ecd89154af5d4	844939370	1	main_slash	11	advance_on_keypress_SLASH	46	stimuli_distractor_diamondtriangles.svg	stimuli_target_trianglesquares.svg	30	yes	57	0	560
6.6.1	win	2022-12-15	02:26:54	02:38:22	684230	62ecb2993d7ecd89154af5d4	844939370	1	main_slash	11	main_slash	47	stimuli_distractor_trianglediamonds.svg	stimuli_target_squaretriangles.svg	11	yes	53	1	702
6.6.1	win	2022-12-15	02:26:54	02:38:22	684230	62ecb2993d7ecd89154af5d4	844939370	1	main_slash	11	advance_on_keypress_SLASH	48	stimuli_distractor_trianglediamonds.svg	stimuli_target_squaretriangles.svg	11	yes	57	0	355
6.6.1	win	2022-12-15	02:26:54	02:38:23	685923	62ecb2993d7ecd89154af5d4	844939370	1	main_slash	11	main_slash	49	stimuli_distractor_diamondtriangles.svg	stimuli_target_squarediamonds.svg	16	yes	53	1	694
6.6.1	win	2022-12-15	02:26:54	02:38:23	685923	62ecb2993d7ecd89154af5d4	844939370	1	main_slash	11	advance_on_keypress_SLASH	50	stimuli_distractor_diamondtriangles.svg	stimuli_target_squarediamonds.svg	16	yes	57	0	414
6.6.1	win	2022-12-15	02:26:54	02:38:25	687925	62ecb2993d7ecd89154af5d4	844939370	1	main_slash	11	main_slash	51	stimuli_target_trianglesquares.svg	stimuli_distractor_trianglediamonds.svg	18	yes	53	1	931
6.6.1	win	2022-12-15	02:26:54	02:38:25	687925	62ecb2993d7ecd89154af5d4	844939370	1	main_slash	11	advance_on_keypress_SLASH	52	stimuli_target_trianglesquares.svg	stimuli_distractor_trianglediamonds.svg	18	yes	57	0	452
6.6.1	win	2022-12-15	02:26:54	02:38:27	689814	62ecb2993d7ecd89154af5d4	844939370	1	main_slash	11	main_slash	53	stimuli_distractor_trianglediamonds.svg	stimuli_target_trianglesquares.svg	26	yes	53	1	786
6.6.1	win	2022-12-15	02:26:54	02:38:27	689814	62ecb2993d7ecd89154af5d4	844939370	1	main_slash	11	advance_on_keypress_SLASH	54	stimuli_distractor_trianglediamonds.svg	stimuli_target_trianglesquares.svg	26	yes	57	0	360
6.6.1	win	2022-12-15	02:26:54	02:38:30	692828	62ecb2993d7ecd89154af5d4	844939370	1	main_slash	11	main_slash	55	stimuli_target_squaretriangles.svg	stimuli_distractor_diamondtriangles.svg	7	yes	0	0	2000
6.6.1	win	2022-12-15	02:26:54	02:38:30	692828	62ecb2993d7ecd89154af5d4	844939370	1	main_slash	11	advance_on_keypress_SLASH	56	stimuli_target_squaretriangles.svg	stimuli_distractor_diamondtriangles.svg	7	yes	57	0	548
6.6.1	win	2022-12-15	02:26:54	02:38:32	694708	62ecb2993d7ecd89154af5d4	844939370	1	main_slash	11	main_slash	57	stimuli_target_trianglecircles.svg	stimuli_distractor_diamondtriangles.svg	21	yes	53	1	679
6.6.1	win	2022-12-15	02:26:54	02:38:32	694708	62ecb2993d7ecd89154af5d4	844939370	1	main_slash	11	advance_on_keypress_SLASH	58	stimuli_target_trianglecircles.svg	stimuli_distractor_diamondtriangles.svg	21	yes	57	0	365
6.6.1	win	2022-12-15	02:26:54	02:38:34	696559	62ecb2993d7ecd89154af5d4	844939370	1	main_slash	11	main_slash	59	stimuli_distractor_trianglediamonds.svg	stimuli_distractor_diamondtriangles.svg	36	no	53	0	832
6.6.1	win	2022-12-15	02:26:54	02:38:34	696559	62ecb2993d7ecd89154af5d4	844939370	1	main_slash	11	advance_on_keypress_SLASH	60	stimuli_distractor_trianglediamonds.svg	stimuli_distractor_diamondtriangles.svg	36	no	57	0	332
6.6.1	win	2022-12-15	02:26:54	02:38:37	699544	62ecb2993d7ecd89154af5d4	844939370	1	main_slash	11	main_slash	61	stimuli_distractor_diamondtriangles.svg	stimuli_target_diamondcircles.svg	31	yes	0	0	2000
6.6.1	win	2022-12-15	02:26:54	02:38:37	699544	62ecb2993d7ecd89154af5d4	844939370	1	main_slash	11	advance_on_keypress_SLASH	62	stimuli_distractor_diamondtriangles.svg	stimuli_target_diamondcircles.svg	31	yes	57	0	395
6.6.1	win	2022-12-15	02:26:54	02:38:39	701502	62ecb2993d7ecd89154af5d4	844939370	1	main_slash	11	main_slash	63	stimuli_target_squarediamonds.svg	stimuli_distractor_diamondtriangles.svg	8	yes	53	1	908
6.6.1	win	2022-12-15	02:26:54	02:38:39	701502	62ecb2993d7ecd89154af5d4	844939370	1	main_slash	11	advance_on_keypress_SLASH	64	stimuli_target_squarediamonds.svg	stimuli_distractor_diamondtriangles.svg	8	yes	57	0	279
6.6.1	win	2022-12-15	02:26:54	02:38:41	703186	62ecb2993d7ecd89154af5d4	844939370	1	main_slash	11	main_slash	65	stimuli_target_squarediamonds.svg	stimuli_distractor_trianglediamonds.svg	4	yes	53	1	743
6.6.1	win	2022-12-15	02:26:54	02:38:41	703186	62ecb2993d7ecd89154af5d4	844939370	1	main_slash	11	advance_on_keypress_SLASH	66	stimuli_target_squarediamonds.svg	stimuli_distractor_trianglediamonds.svg	4	yes	57	0	364
6.6.1	win	2022-12-15	02:26:54	02:38:43	705506	62ecb2993d7ecd89154af5d4	844939370	1	main_slash	11	main_slash	67	stimuli_distractor_trianglediamonds.svg	stimuli_distractor_diamondtriangles.svg	35	no	53	0	1297
6.6.1	win	2022-12-15	02:26:54	02:38:43	705506	62ecb2993d7ecd89154af5d4	844939370	1	main_slash	11	advance_on_keypress_SLASH	68	stimuli_distractor_trianglediamonds.svg	stimuli_distractor_diamondtriangles.svg	35	no	57	0	269
6.6.1	win	2022-12-15	02:26:54	02:38:45	707305	62ecb2993d7ecd89154af5d4	844939370	1	main_slash	11	main_slash	69	stimuli_target_circletriangles.svg	stimuli_distractor_trianglediamonds.svg	1	yes	53	1	880
6.6.1	win	2022-12-15	02:26:54	02:38:45	707305	62ecb2993d7ecd89154af5d4	844939370	1	main_slash	11	advance_on_keypress_SLASH	70	stimuli_target_circletriangles.svg	stimuli_distractor_trianglediamonds.svg	1	yes	57	0	333
6.6.1	win	2022-12-15	02:26:54	02:38:47	709424	62ecb2993d7ecd89154af5d4	844939370	1	main_slash	11	main_slash	71	stimuli_target_squaretriangles.svg	stimuli_distractor_trianglediamonds.svg	3	yes	53	1	1131
6.6.1	win	2022-12-15	02:26:54	02:38:47	709424	62ecb2993d7ecd89154af5d4	844939370	1	main_slash	11	advance_on_keypress_SLASH	72	stimuli_target_squaretriangles.svg	stimuli_distractor_trianglediamonds.svg	3	yes	57	0	326
6.6.1	win	2022-12-15	02:26:54	02:38:49	711297	62ecb2993d7ecd89154af5d4	844939370	1	main_slash	11	main_slash	73	stimuli_target_circlediamonds.svg	stimuli_distractor_diamondtriangles.svg	6	yes	53	1	887
6.6.1	win	2022-12-15	02:26:54	02:38:49	711297	62ecb2993d7ecd89154af5d4	844939370	1	main_slash	11	advance_on_keypress_SLASH	74	stimuli_target_circlediamonds.svg	stimuli_distractor_diamondtriangles.svg	6	yes	57	0	376
6.6.1	win	2022-12-15	02:26:54	02:38:50	713014	62ecb2993d7ecd89154af5d4	844939370	1	main_slash	11	main_slash	75	stimuli_distractor_diamondtriangles.svg	stimuli_target_squaretriangles.svg	15	yes	53	1	688
6.6.1	win	2022-12-15	02:26:54	02:38:50	713014	62ecb2993d7ecd89154af5d4	844939370	1	main_slash	11	advance_on_keypress_SLASH	76	stimuli_distractor_diamondtriangles.svg	stimuli_target_squaretriangles.svg	15	yes	57	0	534
6.6.1	win	2022-12-15	02:26:54	02:38:54	716192	62ecb2993d7ecd89154af5d4	844939370	1	main_slash	11	main_slash	77	stimuli_distractor_diamondtriangles.svg	stimuli_distractor_trianglediamonds.svg	37	no	0	1	2000
6.6.1	win	2022-12-15	02:26:54	02:38:54	716192	62ecb2993d7ecd89154af5d4	844939370	1	main_slash	11	advance_on_keypress_SLASH	78	stimuli_distractor_diamondtriangles.svg	stimuli_distractor_trianglediamonds.svg	37	no	57	0	509
6.6.1	win	2022-12-15	02:26:54	02:38:57	719158	62ecb2993d7ecd89154af5d4	844939370	1	main_slash	11	main_slash	79	stimuli_target_diamondcircles.svg	stimuli_distractor_diamondtriangles.svg	23	yes	53	1	1800
6.6.1	win	2022-12-15	02:26:54	02:38:57	719158	62ecb2993d7ecd89154af5d4	844939370	1	main_slash	11	advance_on_keypress_SLASH	80	stimuli_target_diamondcircles.svg	stimuli_distractor_diamondtriangles.svg	23	yes	57	0	251
6.6.1	win	2022-12-15	02:26:54	02:38:58	720637	62ecb2993d7ecd89154af5d4	844939370	1	main_slash	11	main_slash	81	stimuli_target_circlediamonds.svg	stimuli_distractor_diamondtriangles.svg	6	yes	53	1	578
6.6.1	win	2022-12-15	02:26:54	02:38:58	720637	62ecb2993d7ecd89154af5d4	844939370	1	main_slash	11	advance_on_keypress_SLASH	82	stimuli_target_circlediamonds.svg	stimuli_distractor_diamondtriangles.svg	6	yes	57	0	278
6.6.1	win	2022-12-15	02:26:54	02:39:00	722443	62ecb2993d7ecd89154af5d4	844939370	1	main_slash	11	main_slash	83	stimuli_distractor_trianglediamonds.svg	stimuli_distractor_diamondtriangles.svg	35	no	53	0	868
6.6.1	win	2022-12-15	02:26:54	02:39:00	722443	62ecb2993d7ecd89154af5d4	844939370	1	main_slash	11	advance_on_keypress_SLASH	84	stimuli_distractor_trianglediamonds.svg	stimuli_distractor_diamondtriangles.svg	35	no	57	0	284
6.6.1	win	2022-12-15	02:26:54	02:39:02	724977	62ecb2993d7ecd89154af5d4	844939370	1	main_slash	11	main_slash	85	stimuli_distractor_diamondtriangles.svg	stimuli_target_diamondcircles.svg	31	yes	53	1	1603
6.6.1	win	2022-12-15	02:26:54	02:39:02	724977	62ecb2993d7ecd89154af5d4	844939370	1	main_slash	11	advance_on_keypress_SLASH	86	stimuli_distractor_diamondtriangles.svg	stimuli_target_diamondcircles.svg	31	yes	57	0	268
6.6.1	win	2022-12-15	02:26:54	02:39:04	726829	62ecb2993d7ecd89154af5d4	844939370	1	main_slash	11	main_slash	87	stimuli_distractor_diamondtriangles.svg	stimuli_target_circlediamonds.svg	14	yes	53	1	938
6.6.1	win	2022-12-15	02:26:54	02:39:04	726829	62ecb2993d7ecd89154af5d4	844939370	1	main_slash	11	advance_on_keypress_SLASH	88	stimuli_distractor_diamondtriangles.svg	stimuli_target_circlediamonds.svg	14	yes	57	0	360
6.6.1	win	2022-12-15	02:26:54	02:39:06	728668	62ecb2993d7ecd89154af5d4	844939370	1	main_slash	11	main_slash	89	stimuli_distractor_diamondtriangles.svg	stimuli_distractor_trianglediamonds.svg	37	no	53	0	827
6.6.1	win	2022-12-15	02:26:54	02:39:06	728668	62ecb2993d7ecd89154af5d4	844939370	1	main_slash	11	advance_on_keypress_SLASH	90	stimuli_distractor_diamondtriangles.svg	stimuli_distractor_trianglediamonds.svg	37	no	57	0	338
6.6.1	win	2022-12-15	02:26:54	02:39:08	730088	62ecb2993d7ecd89154af5d4	844939370	1	main_slash	11	main_slash	91	stimuli_distractor_diamondtriangles.svg	stimuli_target_trianglecircles.svg	29	yes	53	1	431
6.6.1	win	2022-12-15	02:26:54	02:39:08	730088	62ecb2993d7ecd89154af5d4	844939370	1	main_slash	11	advance_on_keypress_SLASH	92	stimuli_distractor_diamondtriangles.svg	stimuli_target_trianglecircles.svg	29	yes	57	0	320
6.6.1	win	2022-12-15	02:26:54	02:39:11	733057	62ecb2993d7ecd89154af5d4	844939370	1	main_slash	11	main_slash	93	stimuli_distractor_trianglediamonds.svg	stimuli_distractor_trianglediamonds.svg	33	no	0	1	2000
6.6.1	win	2022-12-15	02:26:54	02:39:11	733057	62ecb2993d7ecd89154af5d4	844939370	1	main_slash	11	advance_on_keypress_SLASH	94	stimuli_distractor_trianglediamonds.svg	stimuli_distractor_trianglediamonds.svg	33	no	57	0	738
6.6.1	win	2022-12-15	02:26:54	02:39:13	735520	62ecb2993d7ecd89154af5d4	844939370	1	main_slash	11	main_slash	95	stimuli_distractor_diamondtriangles.svg	stimuli_target_diamondsquares.svg	32	yes	53	1	1080
6.6.1	win	2022-12-15	02:26:54	02:39:13	735520	62ecb2993d7ecd89154af5d4	844939370	1	main_slash	11	advance_on_keypress_SLASH	96	stimuli_distractor_diamondtriangles.svg	stimuli_target_diamondsquares.svg	32	yes	57	0	226
6.6.1	win	2022-12-15	02:26:54	02:39:15	737320	62ecb2993d7ecd89154af5d4	844939370	1	main_slash	11	main_slash	97	stimuli_target_squaretriangles.svg	stimuli_distractor_diamondtriangles.svg	7	yes	53	1	913
6.6.1	win	2022-12-15	02:26:54	02:39:15	737320	62ecb2993d7ecd89154af5d4	844939370	1	main_slash	11	advance_on_keypress_SLASH	98	stimuli_target_squaretriangles.svg	stimuli_distractor_diamondtriangles.svg	7	yes	57	0	274
6.6.1	win	2022-12-15	02:26:54	02:39:17	739942	62ecb2993d7ecd89154af5d4	844939370	1	main_slash	11	main_slash	99	stimuli_distractor_trianglediamonds.svg	stimuli_target_trianglecircles.svg	25	yes	53	1	1702
6.6.1	win	2022-12-15	02:26:54	02:39:17	739942	62ecb2993d7ecd89154af5d4	844939370	1	main_slash	11	advance_on_keypress_SLASH	100	stimuli_distractor_trianglediamonds.svg	stimuli_target_trianglecircles.svg	25	yes	57	0	300
6.6.1	win	2022-12-15	02:26:54	02:39:19	741483	62ecb2993d7ecd89154af5d4	844939370	1	main_slash	11	main_slash	101	stimuli_distractor_trianglediamonds.svg	stimuli_target_circlediamonds.svg	10	yes	53	1	595
6.6.1	win	2022-12-15	02:26:54	02:39:19	741483	62ecb2993d7ecd89154af5d4	844939370	1	main_slash	11	advance_on_keypress_SLASH	102	stimuli_distractor_trianglediamonds.svg	stimuli_target_circlediamonds.svg	10	yes	57	0	305
6.6.1	win	2022-12-15	02:26:54	02:39:22	744439	62ecb2993d7ecd89154af5d4	844939370	1	main_slash	11	main_slash	103	stimuli_distractor_trianglediamonds.svg	stimuli_distractor_trianglediamonds.svg	34	no	0	1	2000
6.6.1	win	2022-12-15	02:26:54	02:39:22	744439	62ecb2993d7ecd89154af5d4	844939370	1	main_slash	11	advance_on_keypress_SLASH	104	stimuli_distractor_trianglediamonds.svg	stimuli_distractor_trianglediamonds.svg	34	no	57	0	658
6.6.1	win	2022-12-15	02:26:54	02:39:24	746452	62ecb2993d7ecd89154af5d4	844939370	1	main_slash	11	main_slash	105	stimuli_distractor_diamondtriangles.svg	stimuli_target_trianglesquares.svg	30	yes	53	1	696
6.6.1	win	2022-12-15	02:26:54	02:39:24	746452	62ecb2993d7ecd89154af5d4	844939370	1	main_slash	11	advance_on_keypress_SLASH	106	stimuli_distractor_diamondtriangles.svg	stimuli_target_trianglesquares.svg	30	yes	57	0	306
6.6.1	win	2022-12-15	02:26:54	02:39:26	748154	62ecb2993d7ecd89154af5d4	844939370	1	main_slash	11	main_slash	107	stimuli_target_squaretriangles.svg	stimuli_distractor_trianglediamonds.svg	3	yes	53	1	750
6.6.1	win	2022-12-15	02:26:54	02:39:26	748154	62ecb2993d7ecd89154af5d4	844939370	1	main_slash	11	advance_on_keypress_SLASH	108	stimuli_target_squaretriangles.svg	stimuli_distractor_trianglediamonds.svg	3	yes	57	0	331
6.6.1	win	2022-12-15	02:26:54	02:39:27	749882	62ecb2993d7ecd89154af5d4	844939370	1	main_slash	11	main_slash	109	stimuli_target_trianglesquares.svg	stimuli_distractor_diamondtriangles.svg	22	yes	53	1	743
6.6.1	win	2022-12-15	02:26:54	02:39:27	749882	62ecb2993d7ecd89154af5d4	844939370	1	main_slash	11	advance_on_keypress_SLASH	110	stimuli_target_trianglesquares.svg	stimuli_distractor_diamondtriangles.svg	22	yes	57	0	563
6.6.1	win	2022-12-15	02:26:54	02:39:31	753058	62ecb2993d7ecd89154af5d4	844939370	1	main_slash	11	main_slash	111	stimuli_distractor_trianglediamonds.svg	stimuli_target_squaretriangles.svg	11	yes	53	1	1953
6.6.1	win	2022-12-15	02:26:54	02:39:31	753058	62ecb2993d7ecd89154af5d4	844939370	1	main_slash	11	advance_on_keypress_SLASH	112	stimuli_distractor_trianglediamonds.svg	stimuli_target_squaretriangles.svg	11	yes	57	0	156
6.6.1	win	2022-12-15	02:26:54	02:39:32	754609	62ecb2993d7ecd89154af5d4	844939370	1	main_slash	11	main_slash	113	stimuli_distractor_diamondtriangles.svg	stimuli_distractor_trianglediamonds.svg	38	no	53	0	754
6.6.1	win	2022-12-15	02:26:54	02:39:32	754609	62ecb2993d7ecd89154af5d4	844939370	1	main_slash	11	advance_on_keypress_SLASH	114	stimuli_distractor_diamondtriangles.svg	stimuli_distractor_trianglediamonds.svg	38	no	57	0	369
6.6.1	win	2022-12-15	02:26:54	02:39:35	757621	62ecb2993d7ecd89154af5d4	844939370	1	main_slash	11	main_slash	115	stimuli_distractor_trianglediamonds.svg	stimuli_target_diamondcircles.svg	27	yes	0	0	2000
6.6.1	win	2022-12-15	02:26:54	02:39:35	757621	62ecb2993d7ecd89154af5d4	844939370	1	main_slash	11	advance_on_keypress_SLASH	116	stimuli_distractor_trianglediamonds.svg	stimuli_target_diamondcircles.svg	27	yes	57	0	778
6.6.1	win	2022-12-15	02:26:54	02:39:39	761054	62ecb2993d7ecd89154af5d4	844939370	1	main_slash	11	main_slash	117	stimuli_distractor_diamondtriangles.svg	stimuli_target_squarediamonds.svg	16	yes	0	0	2000
6.6.1	win	2022-12-15	02:26:54	02:39:39	761054	62ecb2993d7ecd89154af5d4	844939370	1	main_slash	11	advance_on_keypress_SLASH	118	stimuli_distractor_diamondtriangles.svg	stimuli_target_squarediamonds.svg	16	yes	57	0	50
6.6.1	win	2022-12-15	02:26:54	02:39:40	762315	62ecb2993d7ecd89154af5d4	844939370	1	main_slash	11	main_slash	119	stimuli_target_squarediamonds.svg	stimuli_distractor_diamondtriangles.svg	8	yes	53	1	561
6.6.1	win	2022-12-15	02:26:54	02:39:40	762315	62ecb2993d7ecd89154af5d4	844939370	1	main_slash	11	advance_on_keypress_SLASH	120	stimuli_target_squarediamonds.svg	stimuli_distractor_diamondtriangles.svg	8	yes	57	0	330
6.6.1	win	2022-12-15	02:26:54	02:39:41	764019	62ecb2993d7ecd89154af5d4	844939370	1	main_slash	11	main_slash	121	stimuli_target_diamondsquares.svg	stimuli_distractor_trianglediamonds.svg	20	yes	53	1	715
6.6.1	win	2022-12-15	02:26:54	02:39:41	764019	62ecb2993d7ecd89154af5d4	844939370	1	main_slash	11	advance_on_keypress_SLASH	122	stimuli_target_diamondsquares.svg	stimuli_distractor_trianglediamonds.svg	20	yes	57	0	317
6.6.1	win	2022-12-15	02:26:54	02:39:44	766987	62ecb2993d7ecd89154af5d4	844939370	1	main_slash	11	main_slash	123	stimuli_distractor_diamondtriangles.svg	stimuli_distractor_diamondtriangles.svg	40	no	0	1	2000
6.6.1	win	2022-12-15	02:26:54	02:39:44	766987	62ecb2993d7ecd89154af5d4	844939370	1	main_slash	11	advance_on_keypress_SLASH	124	stimuli_distractor_diamondtriangles.svg	stimuli_distractor_diamondtriangles.svg	40	no	57	0	674
6.6.1	win	2022-12-15	02:26:54	02:39:46	768848	62ecb2993d7ecd89154af5d4	844939370	1	main_slash	11	main_slash	125	stimuli_target_trianglecircles.svg	stimuli_distractor_trianglediamonds.svg	17	yes	53	1	528
6.6.1	win	2022-12-15	02:26:54	02:39:46	768848	62ecb2993d7ecd89154af5d4	844939370	1	main_slash	11	advance_on_keypress_SLASH	126	stimuli_target_trianglecircles.svg	stimuli_distractor_trianglediamonds.svg	17	yes	57	0	458
6.6.1	win	2022-12-15	02:26:54	02:39:48	770416	62ecb2993d7ecd89154af5d4	844939370	1	main_slash	11	main_slash	127	stimuli_target_circletriangles.svg	stimuli_distractor_trianglediamonds.svg	1	yes	53	1	446
6.6.1	win	2022-12-15	02:26:54	02:39:48	770416	62ecb2993d7ecd89154af5d4	844939370	1	main_slash	11	advance_on_keypress_SLASH	128	stimuli_target_circletriangles.svg	stimuli_distractor_trianglediamonds.svg	1	yes	57	0	375
6.6.1	win	2022-12-15	02:26:54	02:39:49	771896	62ecb2993d7ecd89154af5d4	844939370	1	main_slash	11	main_slash	129	stimuli_target_circlediamonds.svg	stimuli_distractor_trianglediamonds.svg	2	yes	53	1	460
6.6.1	win	2022-12-15	02:26:54	02:39:49	771896	62ecb2993d7ecd89154af5d4	844939370	1	main_slash	11	advance_on_keypress_SLASH	130	stimuli_target_circlediamonds.svg	stimuli_distractor_trianglediamonds.svg	2	yes	57	0	372
6.6.1	win	2022-12-15	02:26:54	02:39:52	774919	62ecb2993d7ecd89154af5d4	844939370	1	main_slash	11	main_slash	131	stimuli_target_trianglecircles.svg	stimuli_distractor_diamondtriangles.svg	21	yes	0	0	2000
6.6.1	win	2022-12-15	02:26:54	02:39:52	774919	62ecb2993d7ecd89154af5d4	844939370	1	main_slash	11	advance_on_keypress_SLASH	132	stimuli_target_trianglecircles.svg	stimuli_distractor_diamondtriangles.svg	21	yes	57	0	903
6.6.1	win	2022-12-15	02:26:54	02:39:54	776986	62ecb2993d7ecd89154af5d4	844939370	1	main_slash	11	main_slash	133	stimuli_target_diamondcircles.svg	stimuli_distractor_diamondtriangles.svg	23	yes	53	1	517
6.6.1	win	2022-12-15	02:26:54	02:39:54	776986	62ecb2993d7ecd89154af5d4	844939370	1	main_slash	11	advance_on_keypress_SLASH	134	stimuli_target_diamondcircles.svg	stimuli_distractor_diamondtriangles.svg	23	yes	57	0	247
6.6.1	win	2022-12-15	02:26:54	02:39:56	778523	62ecb2993d7ecd89154af5d4	844939370	1	main_slash	11	main_slash	135	stimuli_target_circletriangles.svg	stimuli_distractor_diamondtriangles.svg	5	yes	53	1	638
6.6.1	win	2022-12-15	02:26:54	02:39:56	778523	62ecb2993d7ecd89154af5d4	844939370	1	main_slash	11	advance_on_keypress_SLASH	136	stimuli_target_circletriangles.svg	stimuli_distractor_diamondtriangles.svg	5	yes	57	0	369
6.6.1	win	2022-12-15	02:26:54	02:39:59	781535	62ecb2993d7ecd89154af5d4	844939370	1	main_slash	11	main_slash	137	stimuli_target_diamondsquares.svg	stimuli_distractor_diamondtriangles.svg	24	yes	0	0	2000
6.6.1	win	2022-12-15	02:26:54	02:39:59	781535	62ecb2993d7ecd89154af5d4	844939370	1	main_slash	11	advance_on_keypress_SLASH	138	stimuli_target_diamondsquares.svg	stimuli_distractor_diamondtriangles.svg	24	yes	57	0	1005
6.6.1	win	2022-12-15	02:26:54	02:40:01	783841	62ecb2993d7ecd89154af5d4	844939370	1	main_slash	11	main_slash	139	stimuli_target_diamondcircles.svg	stimuli_distractor_trianglediamonds.svg	19	yes	53	1	656
6.6.1	win	2022-12-15	02:26:54	02:40:01	783841	62ecb2993d7ecd89154af5d4	844939370	1	main_slash	11	advance_on_keypress_SLASH	140	stimuli_target_diamondcircles.svg	stimuli_distractor_trianglediamonds.svg	19	yes	57	0	321
6.6.1	win	2022-12-15	02:26:54	02:40:03	785524	62ecb2993d7ecd89154af5d4	844939370	1	main_slash	11	main_slash	141	stimuli_target_squarediamonds.svg	stimuli_distractor_trianglediamonds.svg	4	yes	53	1	723
6.6.1	win	2022-12-15	02:26:54	02:40:03	785524	62ecb2993d7ecd89154af5d4	844939370	1	main_slash	11	advance_on_keypress_SLASH	142	stimuli_target_squarediamonds.svg	stimuli_distractor_trianglediamonds.svg	4	yes	57	0	291
6.6.1	win	2022-12-15	02:26:54	02:40:05	787099	62ecb2993d7ecd89154af5d4	844939370	1	main_slash	11	main_slash	143	stimuli_target_trianglesquares.svg	stimuli_distractor_trianglediamonds.svg	18	yes	53	1	649
6.6.1	win	2022-12-15	02:26:54	02:40:05	787099	62ecb2993d7ecd89154af5d4	844939370	1	main_slash	11	advance_on_keypress_SLASH	144	stimuli_target_trianglesquares.svg	stimuli_distractor_trianglediamonds.svg	18	yes	57	0	336
6.6.1	win	2022-12-15	02:26:54	02:40:06	788851	62ecb2993d7ecd89154af5d4	844939370	1	main_slash	11	main_slash	145	stimuli_distractor_trianglediamonds.svg	stimuli_target_trianglesquares.svg	26	yes	53	1	767
6.6.1	win	2022-12-15	02:26:54	02:40:06	788851	62ecb2993d7ecd89154af5d4	844939370	1	main_slash	11	advance_on_keypress_SLASH	146	stimuli_distractor_trianglediamonds.svg	stimuli_target_trianglesquares.svg	26	yes	57	0	385
6.6.1	win	2022-12-15	02:26:54	02:40:08	790507	62ecb2993d7ecd89154af5d4	844939370	1	main_slash	11	main_slash	147	stimuli_distractor_diamondtriangles.svg	stimuli_target_circletriangles.svg	13	yes	53	1	623
6.6.1	win	2022-12-15	02:26:54	02:40:08	790507	62ecb2993d7ecd89154af5d4	844939370	1	main_slash	11	advance_on_keypress_SLASH	148	stimuli_distractor_diamondtriangles.svg	stimuli_target_circletriangles.svg	13	yes	57	0	289
6.6.1	win	2022-12-15	02:26:54	02:40:10	792157	62ecb2993d7ecd89154af5d4	844939370	1	main_slash	11	main_slash	149	stimuli_distractor_trianglediamonds.svg	stimuli_target_diamondsquares.svg	28	yes	53	1	723
6.6.1	win	2022-12-15	02:26:54	02:40:10	792157	62ecb2993d7ecd89154af5d4	844939370	1	main_slash	11	advance_on_keypress_SLASH	150	stimuli_distractor_trianglediamonds.svg	stimuli_target_diamondsquares.svg	28	yes	57	0	1130
6.6.1	win	2022-12-15	02:26:54	02:40:13	795934	62ecb2993d7ecd89154af5d4	844939370	1	main_slash	11	main_slash	151	stimuli_distractor_diamondtriangles.svg	stimuli_distractor_diamondtriangles.svg	39	no	0	1	2000
6.6.1	win	2022-12-15	02:26:54	02:40:13	795934	62ecb2993d7ecd89154af5d4	844939370	1	main_slash	11	advance_on_keypress_SLASH	152	stimuli_distractor_diamondtriangles.svg	stimuli_distractor_diamondtriangles.svg	39	no	57	0	617
6.6.1	win	2022-12-15	02:26:54	02:40:15	797776	62ecb2993d7ecd89154af5d4	844939370	1	main_slash	11	main_slash	153	stimuli_distractor_trianglediamonds.svg	stimuli_target_circletriangles.svg	9	yes	53	1	576
6.6.1	win	2022-12-15	02:26:54	02:40:15	797776	62ecb2993d7ecd89154af5d4	844939370	1	main_slash	11	advance_on_keypress_SLASH	154	stimuli_distractor_trianglediamonds.svg	stimuli_target_circletriangles.svg	9	yes	57	0	312
6.6.1	win	2022-12-15	02:26:54	02:40:17	799468	62ecb2993d7ecd89154af5d4	844939370	1	main_slash	11	main_slash	155	stimuli_distractor_diamondtriangles.svg	stimuli_target_squaretriangles.svg	15	yes	53	1	719
6.6.1	win	2022-12-15	02:26:54	02:40:17	799468	62ecb2993d7ecd89154af5d4	844939370	1	main_slash	11	advance_on_keypress_SLASH	156	stimuli_distractor_diamondtriangles.svg	stimuli_target_squaretriangles.svg	15	yes	57	0	770
6.6.1	win	2022-12-15	02:26:54	02:40:19	801448	62ecb2993d7ecd89154af5d4	844939370	1	main_slash	11	main_slash	157	stimuli_distractor_trianglediamonds.svg	stimuli_target_squarediamonds.svg	12	yes	53	1	565
6.6.1	win	2022-12-15	02:26:54	02:40:19	801448	62ecb2993d7ecd89154af5d4	844939370	1	main_slash	11	advance_on_keypress_SLASH	158	stimuli_distractor_trianglediamonds.svg	stimuli_target_squarediamonds.svg	12	yes	57	0	289
6.6.1	win	2022-12-15	02:26:54	02:40:22	804383	62ecb2993d7ecd89154af5d4	844939370	1	main_slash	11	main_slash	159	stimuli_distractor_trianglediamonds.svg	stimuli_distractor_diamondtriangles.svg	36	no	0	1	2000
6.6.1	win	2022-12-15	02:26:54	02:40:22	804383	62ecb2993d7ecd89154af5d4	844939370	1	main_slash	11	advance_on_keypress_SLASH	160	stimuli_distractor_trianglediamonds.svg	stimuli_distractor_diamondtriangles.svg	36	no	57	0	266