build	computer.platform	date	time	timestamp	time_elapsed_ms	subject	group	session	blockcode	blocknum	trialcode	trialnum	stimulus_left	stimulus_right	stim_index	target_present	response	correct	latency
6.6.1	win	2022-11-07	11:41:54	11:45:17	201393	61114b774f9199a8f8f75de2	626826950	1	practice_z	5	practice_z	1	stimuli_distractor_diamondtriangles.svg	stimuli_distractor_diamondtriangles.svg	13	no	0	1	2000
6.6.1	win	2022-11-07	11:41:54	11:45:17	201393	61114b774f9199a8f8f75de2	626826950	1	practice_z	5	advance_on_keypress_ZEE	2	stimuli_distractor_diamondtriangles.svg	stimuli_distractor_diamondtriangles.svg	13	no	57	0	3490
6.6.1	win	2022-11-07	11:41:54	11:45:24	208119	61114b774f9199a8f8f75de2	626826950	1	practice_z	5	practice_z	3	stimuli_target_diamondsquares.svg	stimuli_distractor_diamondtriangles.svg	3	yes	44	1	1586
6.6.1	win	2022-11-07	11:41:54	11:45:24	208119	61114b774f9199a8f8f75de2	626826950	1	practice_z	5	advance_on_keypress_ZEE	4	stimuli_target_diamondsquares.svg	stimuli_distractor_diamondtriangles.svg	3	yes	57	0	1055
6.6.1	win	2022-11-07	11:41:54	11:45:28	212821	61114b774f9199a8f8f75de2	626826950	1	practice_z	5	practice_z	5	stimuli_distractor_diamondtriangles.svg	stimuli_distractor_trianglediamonds.svg	14	no	0	1	2000
6.6.1	win	2022-11-07	11:41:54	11:45:28	212821	61114b774f9199a8f8f75de2	626826950	1	practice_z	5	advance_on_keypress_ZEE	6	stimuli_distractor_diamondtriangles.svg	stimuli_distractor_trianglediamonds.svg	14	no	57	0	1296
6.6.1	win	2022-11-07	11:41:54	11:45:32	216961	61114b774f9199a8f8f75de2	626826950	1	practice_z	5	practice_z	7	stimuli_distractor_diamondtriangles.svg	stimuli_target_circletriangles.svg	7	yes	44	1	1185
6.6.1	win	2022-11-07	11:41:54	11:45:32	216961	61114b774f9199a8f8f75de2	626826950	1	practice_z	5	advance_on_keypress_ZEE	8	stimuli_distractor_diamondtriangles.svg	stimuli_target_circletriangles.svg	7	yes	57	0	1254
6.6.1	win	2022-11-07	11:41:54	11:45:36	220745	61114b774f9199a8f8f75de2	626826950	1	practice_z	5	practice_z	9	stimuli_target_squarediamonds.svg	stimuli_distractor_diamondtriangles.svg	2	yes	44	1	882
6.6.1	win	2022-11-07	11:41:54	11:45:36	220745	61114b774f9199a8f8f75de2	626826950	1	practice_z	5	advance_on_keypress_ZEE	10	stimuli_target_squarediamonds.svg	stimuli_distractor_diamondtriangles.svg	2	yes	57	0	764
6.6.1	win	2022-11-07	11:41:54	11:45:39	223905	61114b774f9199a8f8f75de2	626826950	1	practice_z	5	practice_z	11	stimuli_target_circlediamonds.svg	stimuli_distractor_diamondtriangles.svg	1	yes	44	1	739
6.6.1	win	2022-11-07	11:41:54	11:45:39	223905	61114b774f9199a8f8f75de2	626826950	1	practice_z	5	advance_on_keypress_ZEE	12	stimuli_target_circlediamonds.svg	stimuli_distractor_diamondtriangles.svg	1	yes	57	0	931
6.6.1	win	2022-11-07	11:41:54	11:45:44	228486	61114b774f9199a8f8f75de2	626826950	1	practice_z	5	practice_z	13	stimuli_distractor_trianglediamonds.svg	stimuli_distractor_diamondtriangles.svg	16	no	0	1	2000
6.6.1	win	2022-11-07	11:41:54	11:45:44	228486	61114b774f9199a8f8f75de2	626826950	1	practice_z	5	advance_on_keypress_ZEE	14	stimuli_distractor_trianglediamonds.svg	stimuli_distractor_diamondtriangles.svg	16	no	57	0	1200
6.6.1	win	2022-11-07	11:41:54	11:45:48	232499	61114b774f9199a8f8f75de2	626826950	1	practice_z	5	practice_z	15	stimuli_distractor_trianglediamonds.svg	stimuli_target_squarediamonds.svg	11	yes	44	1	1157
6.6.1	win	2022-11-07	11:41:54	11:45:48	232499	61114b774f9199a8f8f75de2	626826950	1	practice_z	5	advance_on_keypress_ZEE	16	stimuli_distractor_trianglediamonds.svg	stimuli_target_squarediamonds.svg	11	yes	57	0	653
6.6.1	win	2022-11-07	11:41:54	11:45:51	235587	61114b774f9199a8f8f75de2	626826950	1	practice_z	5	practice_z	17	stimuli_distractor_trianglediamonds.svg	stimuli_target_circlediamonds.svg	10	yes	44	1	793
6.6.1	win	2022-11-07	11:41:54	11:45:51	235587	61114b774f9199a8f8f75de2	626826950	1	practice_z	5	advance_on_keypress_ZEE	18	stimuli_distractor_trianglediamonds.svg	stimuli_target_circlediamonds.svg	10	yes	57	0	639
6.6.1	win	2022-11-07	11:41:54	11:45:55	239864	61114b774f9199a8f8f75de2	626826950	1	practice_z	5	practice_z	19	stimuli_distractor_trianglediamonds.svg	stimuli_distractor_trianglediamonds.svg	15	no	0	1	2000
6.6.1	win	2022-11-07	11:41:54	11:45:55	239864	61114b774f9199a8f8f75de2	626826950	1	practice_z	5	advance_on_keypress_ZEE	20	stimuli_distractor_trianglediamonds.svg	stimuli_distractor_trianglediamonds.svg	15	no	57	0	600
6.6.1	win	2022-11-07	11:41:54	11:45:59	243253	61114b774f9199a8f8f75de2	626826950	1	practice_z	5	practice_z	21	stimuli_distractor_trianglediamonds.svg	stimuli_target_diamondcircles.svg	12	yes	44	1	1134
6.6.1	win	2022-11-07	11:41:54	11:45:59	243253	61114b774f9199a8f8f75de2	626826950	1	practice_z	5	advance_on_keypress_ZEE	22	stimuli_distractor_trianglediamonds.svg	stimuli_target_diamondcircles.svg	12	yes	57	0	581
6.6.1	win	2022-11-07	11:41:54	11:46:02	246270	61114b774f9199a8f8f75de2	626826950	1	practice_z	5	practice_z	23	stimuli_distractor_diamondtriangles.svg	stimuli_target_trianglecircles.svg	9	yes	44	1	780
6.6.1	win	2022-11-07	11:41:54	11:46:02	246270	61114b774f9199a8f8f75de2	626826950	1	practice_z	5	advance_on_keypress_ZEE	24	stimuli_distractor_diamondtriangles.svg	stimuli_target_trianglecircles.svg	9	yes	57	0	610
6.6.1	win	2022-11-07	11:41:54	11:46:05	249269	61114b774f9199a8f8f75de2	626826950	1	practice_z	5	practice_z	25	stimuli_target_squarediamonds.svg	stimuli_distractor_trianglediamonds.svg	5	yes	44	1	761
6.6.1	win	2022-11-07	11:41:54	11:46:05	249269	61114b774f9199a8f8f75de2	626826950	1	practice_z	5	advance_on_keypress_ZEE	26	stimuli_target_squarediamonds.svg	stimuli_distractor_trianglediamonds.svg	5	yes	57	0	640
6.6.1	win	2022-11-07	11:41:54	11:46:08	252582	61114b774f9199a8f8f75de2	626826950	1	practice_z	5	practice_z	27	stimuli_distractor_diamondtriangles.svg	stimuli_target_diamondcircles.svg	8	yes	44	1	1037
6.6.1	win	2022-11-07	11:41:54	11:46:08	252582	61114b774f9199a8f8f75de2	626826950	1	practice_z	5	advance_on_keypress_ZEE	28	stimuli_distractor_diamondtriangles.svg	stimuli_target_diamondcircles.svg	8	yes	57	0	504
6.6.1	win	2022-11-07	11:41:54	11:46:11	255782	61114b774f9199a8f8f75de2	626826950	1	practice_z	5	practice_z	29	stimuli_target_diamondsquares.svg	stimuli_distractor_trianglediamonds.svg	6	yes	44	1	1051
6.6.1	win	2022-11-07	11:41:54	11:46:11	255782	61114b774f9199a8f8f75de2	626826950	1	practice_z	5	advance_on_keypress_ZEE	30	stimuli_target_diamondsquares.svg	stimuli_distractor_trianglediamonds.svg	6	yes	57	0	526
6.6.1	win	2022-11-07	11:41:54	11:46:14	258895	61114b774f9199a8f8f75de2	626826950	1	practice_z	5	practice_z	31	stimuli_target_circlediamonds.svg	stimuli_distractor_trianglediamonds.svg	4	yes	44	1	943
6.6.1	win	2022-11-07	11:41:54	11:46:14	258895	61114b774f9199a8f8f75de2	626826950	1	practice_z	5	advance_on_keypress_ZEE	32	stimuli_target_circlediamonds.svg	stimuli_distractor_trianglediamonds.svg	4	yes	57	0	447
6.6.1	win	2022-11-07	11:41:54	11:46:43	287138	61114b774f9199a8f8f75de2	626826950	1	main_z	7	main_z	1	stimuli_distractor_diamondtriangles.svg	stimuli_distractor_trianglediamonds.svg	37	no	44	0	1592
6.6.1	win	2022-11-07	11:41:54	11:46:43	287138	61114b774f9199a8f8f75de2	626826950	1	main_z	7	advance_on_keypress_ZEE	2	stimuli_distractor_diamondtriangles.svg	stimuli_distractor_trianglediamonds.svg	37	no	57	0	1039
6.6.1	win	2022-11-07	11:41:54	11:46:46	290082	61114b774f9199a8f8f75de2	626826950	1	main_z	7	main_z	3	stimuli_distractor_trianglediamonds.svg	stimuli_target_squarediamonds.svg	12	yes	44	1	1267
6.6.1	win	2022-11-07	11:41:54	11:46:46	290082	61114b774f9199a8f8f75de2	626826950	1	main_z	7	advance_on_keypress_ZEE	4	stimuli_distractor_trianglediamonds.svg	stimuli_target_squarediamonds.svg	12	yes	57	0	646
6.6.1	win	2022-11-07	11:41:54	11:46:48	292562	61114b774f9199a8f8f75de2	626826950	1	main_z	7	main_z	5	stimuli_distractor_trianglediamonds.svg	stimuli_target_squaretriangles.svg	11	yes	44	1	1178
6.6.1	win	2022-11-07	11:41:54	11:46:48	292562	61114b774f9199a8f8f75de2	626826950	1	main_z	7	advance_on_keypress_ZEE	6	stimuli_distractor_trianglediamonds.svg	stimuli_target_squaretriangles.svg	11	yes	57	0	417
6.6.1	win	2022-11-07	11:41:54	11:46:51	295620	61114b774f9199a8f8f75de2	626826950	1	main_z	7	main_z	7	stimuli_distractor_trianglediamonds.svg	stimuli_distractor_trianglediamonds.svg	34	no	0	1	2000
6.6.1	win	2022-11-07	11:41:54	11:46:51	295620	61114b774f9199a8f8f75de2	626826950	1	main_z	7	advance_on_keypress_ZEE	8	stimuli_distractor_trianglediamonds.svg	stimuli_distractor_trianglediamonds.svg	34	no	57	0	21087
6.6.1	win	2022-11-07	11:41:54	11:47:13	318022	61114b774f9199a8f8f75de2	626826950	1	main_z	7	main_z	9	stimuli_distractor_trianglediamonds.svg	stimuli_target_circletriangles.svg	9	yes	44	1	662
6.6.1	win	2022-11-07	11:41:54	11:47:13	318022	61114b774f9199a8f8f75de2	626826950	1	main_z	7	advance_on_keypress_ZEE	10	stimuli_distractor_trianglediamonds.svg	stimuli_target_circletriangles.svg	9	yes	57	0	562
6.6.1	win	2022-11-07	11:41:54	11:47:15	319702	61114b774f9199a8f8f75de2	626826950	1	main_z	7	main_z	11	stimuli_target_circlediamonds.svg	stimuli_distractor_trianglediamonds.svg	2	yes	44	1	490
6.6.1	win	2022-11-07	11:41:54	11:47:15	319702	61114b774f9199a8f8f75de2	626826950	1	main_z	7	advance_on_keypress_ZEE	12	stimuli_target_circlediamonds.svg	stimuli_distractor_trianglediamonds.svg	2	yes	57	0	413
6.6.1	win	2022-11-07	11:41:54	11:47:18	322031	61114b774f9199a8f8f75de2	626826950	1	main_z	7	main_z	13	stimuli_target_circlediamonds.svg	stimuli_distractor_diamondtriangles.svg	6	yes	44	1	1267
6.6.1	win	2022-11-07	11:41:54	11:47:18	322031	61114b774f9199a8f8f75de2	626826950	1	main_z	7	advance_on_keypress_ZEE	14	stimuli_target_circlediamonds.svg	stimuli_distractor_diamondtriangles.svg	6	yes	57	0	438
6.6.1	win	2022-11-07	11:41:54	11:47:19	323759	61114b774f9199a8f8f75de2	626826950	1	main_z	7	main_z	15	stimuli_target_squarediamonds.svg	stimuli_distractor_trianglediamonds.svg	4	yes	44	1	643
6.6.1	win	2022-11-07	11:41:54	11:47:19	323759	61114b774f9199a8f8f75de2	626826950	1	main_z	7	advance_on_keypress_ZEE	16	stimuli_target_squarediamonds.svg	stimuli_distractor_trianglediamonds.svg	4	yes	57	0	1160
6.6.1	win	2022-11-07	11:41:54	11:47:22	326696	61114b774f9199a8f8f75de2	626826950	1	main_z	7	main_z	17	stimuli_distractor_trianglediamonds.svg	stimuli_target_diamondsquares.svg	28	yes	44	1	1144
6.6.1	win	2022-11-07	11:41:54	11:47:22	326696	61114b774f9199a8f8f75de2	626826950	1	main_z	7	advance_on_keypress_ZEE	18	stimuli_distractor_trianglediamonds.svg	stimuli_target_diamondsquares.svg	28	yes	57	0	248
6.6.1	win	2022-11-07	11:41:54	11:47:25	329587	61114b774f9199a8f8f75de2	626826950	1	main_z	7	main_z	19	stimuli_target_squaretriangles.svg	stimuli_distractor_trianglediamonds.svg	3	yes	0	0	2000
6.6.1	win	2022-11-07	11:41:54	11:47:25	329587	61114b774f9199a8f8f75de2	626826950	1	main_z	7	advance_on_keypress_ZEE	20	stimuli_target_squaretriangles.svg	stimuli_distractor_trianglediamonds.svg	3	yes	57	0	442
6.6.1	win	2022-11-07	11:41:54	11:47:27	331480	61114b774f9199a8f8f75de2	626826950	1	main_z	7	main_z	21	stimuli_distractor_trianglediamonds.svg	stimuli_target_diamondcircles.svg	27	yes	44	1	807
6.6.1	win	2022-11-07	11:41:54	11:47:27	331480	61114b774f9199a8f8f75de2	626826950	1	main_z	7	advance_on_keypress_ZEE	22	stimuli_distractor_trianglediamonds.svg	stimuli_target_diamondcircles.svg	27	yes	57	0	1045
6.6.1	win	2022-11-07	11:41:54	11:47:29	333816	61114b774f9199a8f8f75de2	626826950	1	main_z	7	main_z	23	stimuli_target_circletriangles.svg	stimuli_distractor_diamondtriangles.svg	5	yes	44	1	657
6.6.1	win	2022-11-07	11:41:54	11:47:29	333816	61114b774f9199a8f8f75de2	626826950	1	main_z	7	advance_on_keypress_ZEE	24	stimuli_target_circletriangles.svg	stimuli_distractor_diamondtriangles.svg	5	yes	57	0	741
6.6.1	win	2022-11-07	11:41:54	11:47:32	336137	61114b774f9199a8f8f75de2	626826950	1	main_z	7	main_z	25	stimuli_target_squarediamonds.svg	stimuli_distractor_diamondtriangles.svg	8	yes	44	1	943
6.6.1	win	2022-11-07	11:41:54	11:47:32	336137	61114b774f9199a8f8f75de2	626826950	1	main_z	7	advance_on_keypress_ZEE	26	stimuli_target_squarediamonds.svg	stimuli_distractor_diamondtriangles.svg	8	yes	57	0	839
6.6.1	win	2022-11-07	11:41:54	11:47:35	339241	61114b774f9199a8f8f75de2	626826950	1	main_z	7	main_z	27	stimuli_distractor_trianglediamonds.svg	stimuli_target_trianglesquares.svg	26	yes	44	1	1628
6.6.1	win	2022-11-07	11:41:54	11:47:35	339241	61114b774f9199a8f8f75de2	626826950	1	main_z	7	advance_on_keypress_ZEE	28	stimuli_distractor_trianglediamonds.svg	stimuli_target_trianglesquares.svg	26	yes	57	0	640
6.6.1	win	2022-11-07	11:41:54	11:47:38	342516	61114b774f9199a8f8f75de2	626826950	1	main_z	7	main_z	29	stimuli_distractor_trianglediamonds.svg	stimuli_distractor_trianglediamonds.svg	33	no	0	1	2000
6.6.1	win	2022-11-07	11:41:54	11:47:38	342516	61114b774f9199a8f8f75de2	626826950	1	main_z	7	advance_on_keypress_ZEE	30	stimuli_distractor_trianglediamonds.svg	stimuli_distractor_trianglediamonds.svg	33	no	57	0	402
6.6.1	win	2022-11-07	11:41:54	11:47:40	344530	61114b774f9199a8f8f75de2	626826950	1	main_z	7	main_z	31	stimuli_target_diamondsquares.svg	stimuli_distractor_trianglediamonds.svg	20	yes	44	1	961
6.6.1	win	2022-11-07	11:41:54	11:47:40	344530	61114b774f9199a8f8f75de2	626826950	1	main_z	7	advance_on_keypress_ZEE	32	stimuli_target_diamondsquares.svg	stimuli_distractor_trianglediamonds.svg	20	yes	57	0	36550
6.6.1	win	2022-11-07	11:41:54	11:48:19	383724	61114b774f9199a8f8f75de2	626826950	1	main_z	7	main_z	33	stimuli_distractor_trianglediamonds.svg	stimuli_distractor_diamondtriangles.svg	35	no	0	1	2000
6.6.1	win	2022-11-07	11:41:54	11:48:19	383724	61114b774f9199a8f8f75de2	626826950	1	main_z	7	advance_on_keypress_ZEE	34	stimuli_distractor_trianglediamonds.svg	stimuli_distractor_diamondtriangles.svg	35	no	57	0	505
6.6.1	win	2022-11-07	11:41:54	11:48:21	385600	61114b774f9199a8f8f75de2	626826950	1	main_z	7	main_z	35	stimuli_target_squaretriangles.svg	stimuli_distractor_diamondtriangles.svg	7	yes	44	1	723
6.6.1	win	2022-11-07	11:41:54	11:48:21	385600	61114b774f9199a8f8f75de2	626826950	1	main_z	7	advance_on_keypress_ZEE	36	stimuli_target_squaretriangles.svg	stimuli_distractor_diamondtriangles.svg	7	yes	57	0	508
6.6.1	win	2022-11-07	11:41:54	11:48:23	387352	61114b774f9199a8f8f75de2	626826950	1	main_z	7	main_z	37	stimuli_distractor_trianglediamonds.svg	stimuli_target_trianglecircles.svg	25	yes	44	1	607
6.6.1	win	2022-11-07	11:41:54	11:48:23	387352	61114b774f9199a8f8f75de2	626826950	1	main_z	7	advance_on_keypress_ZEE	38	stimuli_distractor_trianglediamonds.svg	stimuli_target_trianglecircles.svg	25	yes	57	0	381
6.6.1	win	2022-11-07	11:41:54	11:48:24	388872	61114b774f9199a8f8f75de2	626826950	1	main_z	7	main_z	39	stimuli_target_diamondcircles.svg	stimuli_distractor_trianglediamonds.svg	19	yes	44	1	492
6.6.1	win	2022-11-07	11:41:54	11:48:24	388872	61114b774f9199a8f8f75de2	626826950	1	main_z	7	advance_on_keypress_ZEE	40	stimuli_target_diamondcircles.svg	stimuli_distractor_trianglediamonds.svg	19	yes	57	0	454
6.6.1	win	2022-11-07	11:41:54	11:48:27	391529	61114b774f9199a8f8f75de2	626826950	1	main_z	7	main_z	41	stimuli_target_circletriangles.svg	stimuli_distractor_trianglediamonds.svg	1	yes	44	1	1563
6.6.1	win	2022-11-07	11:41:54	11:48:27	391529	61114b774f9199a8f8f75de2	626826950	1	main_z	7	advance_on_keypress_ZEE	42	stimuli_target_circletriangles.svg	stimuli_distractor_trianglediamonds.svg	1	yes	57	0	298
6.6.1	win	2022-11-07	11:41:54	11:48:29	393577	61114b774f9199a8f8f75de2	626826950	1	main_z	7	main_z	43	stimuli_distractor_diamondtriangles.svg	stimuli_target_trianglecircles.svg	29	yes	44	1	1109
6.6.1	win	2022-11-07	11:41:54	11:48:29	393577	61114b774f9199a8f8f75de2	626826950	1	main_z	7	advance_on_keypress_ZEE	44	stimuli_distractor_diamondtriangles.svg	stimuli_target_trianglecircles.svg	29	yes	57	0	183
6.6.1	win	2022-11-07	11:41:54	11:48:32	396065	61114b774f9199a8f8f75de2	626826950	1	main_z	7	main_z	45	stimuli_distractor_diamondtriangles.svg	stimuli_target_circletriangles.svg	13	yes	44	1	1662
6.6.1	win	2022-11-07	11:41:54	11:48:32	396065	61114b774f9199a8f8f75de2	626826950	1	main_z	7	advance_on_keypress_ZEE	46	stimuli_distractor_diamondtriangles.svg	stimuli_target_circletriangles.svg	13	yes	57	0	53417
6.6.1	win	2022-11-07	11:41:54	11:49:28	452125	61114b774f9199a8f8f75de2	626826950	1	main_z	7	main_z	47	stimuli_distractor_diamondtriangles.svg	stimuli_distractor_trianglediamonds.svg	38	no	0	1	2000
6.6.1	win	2022-11-07	11:41:54	11:49:28	452125	61114b774f9199a8f8f75de2	626826950	1	main_z	7	advance_on_keypress_ZEE	48	stimuli_distractor_diamondtriangles.svg	stimuli_distractor_trianglediamonds.svg	38	no	57	0	496
6.6.1	win	2022-11-07	11:41:54	11:49:29	453906	61114b774f9199a8f8f75de2	626826950	1	main_z	7	main_z	49	stimuli_distractor_trianglediamonds.svg	stimuli_target_circlediamonds.svg	10	yes	44	1	627
6.6.1	win	2022-11-07	11:41:54	11:49:29	453906	61114b774f9199a8f8f75de2	626826950	1	main_z	7	advance_on_keypress_ZEE	50	stimuli_distractor_trianglediamonds.svg	stimuli_target_circlediamonds.svg	10	yes	57	0	321
6.6.1	win	2022-11-07	11:41:54	11:49:32	456863	61114b774f9199a8f8f75de2	626826950	1	main_z	7	main_z	51	stimuli_distractor_diamondtriangles.svg	stimuli_target_trianglesquares.svg	30	yes	0	0	2000
6.6.1	win	2022-11-07	11:41:54	11:49:32	456863	61114b774f9199a8f8f75de2	626826950	1	main_z	7	advance_on_keypress_ZEE	52	stimuli_distractor_diamondtriangles.svg	stimuli_target_trianglesquares.svg	30	yes	57	0	295
6.6.1	win	2022-11-07	11:41:54	11:49:34	458658	61114b774f9199a8f8f75de2	626826950	1	main_z	7	main_z	53	stimuli_distractor_diamondtriangles.svg	stimuli_target_diamondsquares.svg	32	yes	44	1	858
6.6.1	win	2022-11-07	11:41:54	11:49:34	458658	61114b774f9199a8f8f75de2	626826950	1	main_z	7	advance_on_keypress_ZEE	54	stimuli_distractor_diamondtriangles.svg	stimuli_target_diamondsquares.svg	32	yes	57	0	270
6.6.1	win	2022-11-07	11:41:54	11:49:37	461569	61114b774f9199a8f8f75de2	626826950	1	main_z	7	main_z	55	stimuli_distractor_diamondtriangles.svg	stimuli_distractor_diamondtriangles.svg	39	no	0	1	2000
6.6.1	win	2022-11-07	11:41:54	11:49:37	461569	61114b774f9199a8f8f75de2	626826950	1	main_z	7	advance_on_keypress_ZEE	56	stimuli_distractor_diamondtriangles.svg	stimuli_distractor_diamondtriangles.svg	39	no	57	0	424
6.6.1	win	2022-11-07	11:41:54	11:49:40	464638	61114b774f9199a8f8f75de2	626826950	1	main_z	7	main_z	57	stimuli_target_trianglesquares.svg	stimuli_distractor_trianglediamonds.svg	18	yes	0	0	2000
6.6.1	win	2022-11-07	11:41:54	11:49:40	464638	61114b774f9199a8f8f75de2	626826950	1	main_z	7	advance_on_keypress_ZEE	58	stimuli_target_trianglesquares.svg	stimuli_distractor_trianglediamonds.svg	18	yes	57	0	330
6.6.1	win	2022-11-07	11:41:54	11:49:42	466228	61114b774f9199a8f8f75de2	626826950	1	main_z	7	main_z	59	stimuli_distractor_diamondtriangles.svg	stimuli_target_circlediamonds.svg	14	yes	44	1	603
6.6.1	win	2022-11-07	11:41:54	11:49:42	466228	61114b774f9199a8f8f75de2	626826950	1	main_z	7	advance_on_keypress_ZEE	60	stimuli_distractor_diamondtriangles.svg	stimuli_target_circlediamonds.svg	14	yes	57	0	409
6.6.1	win	2022-11-07	11:41:54	11:49:43	467972	61114b774f9199a8f8f75de2	626826950	1	main_z	7	main_z	61	stimuli_target_diamondsquares.svg	stimuli_distractor_diamondtriangles.svg	24	yes	44	1	696
6.6.1	win	2022-11-07	11:41:54	11:49:43	467972	61114b774f9199a8f8f75de2	626826950	1	main_z	7	advance_on_keypress_ZEE	62	stimuli_target_diamondsquares.svg	stimuli_distractor_diamondtriangles.svg	24	yes	57	0	875
6.6.1	win	2022-11-07	11:41:54	11:49:47	471478	61114b774f9199a8f8f75de2	626826950	1	main_z	7	main_z	63	stimuli_distractor_trianglediamonds.svg	stimuli_distractor_diamondtriangles.svg	36	no	0	1	2000
6.6.1	win	2022-11-07	11:41:54	11:49:47	471478	61114b774f9199a8f8f75de2	626826950	1	main_z	7	advance_on_keypress_ZEE	64	stimuli_distractor_trianglediamonds.svg	stimuli_distractor_diamondtriangles.svg	36	no	57	0	363
6.6.1	win	2022-11-07	11:41:54	11:49:50	474481	61114b774f9199a8f8f75de2	626826950	1	main_z	7	main_z	65	stimuli_target_trianglesquares.svg	stimuli_distractor_diamondtriangles.svg	22	yes	0	0	2000
6.6.1	win	2022-11-07	11:41:54	11:49:50	474481	61114b774f9199a8f8f75de2	626826950	1	main_z	7	advance_on_keypress_ZEE	66	stimuli_target_trianglesquares.svg	stimuli_distractor_diamondtriangles.svg	22	yes	57	0	441
6.6.1	win	2022-11-07	11:41:54	11:49:52	476725	61114b774f9199a8f8f75de2	626826950	1	main_z	7	main_z	67	stimuli_distractor_diamondtriangles.svg	stimuli_target_squaretriangles.svg	15	yes	44	1	1158
6.6.1	win	2022-11-07	11:41:54	11:49:52	476725	61114b774f9199a8f8f75de2	626826950	1	main_z	7	advance_on_keypress_ZEE	68	stimuli_distractor_diamondtriangles.svg	stimuli_target_squaretriangles.svg	15	yes	57	0	949
6.6.1	win	2022-11-07	11:41:54	11:49:54	478902	61114b774f9199a8f8f75de2	626826950	1	main_z	7	main_z	69	stimuli_target_trianglecircles.svg	stimuli_distractor_trianglediamonds.svg	17	yes	44	1	581
6.6.1	win	2022-11-07	11:41:54	11:49:54	478902	61114b774f9199a8f8f75de2	626826950	1	main_z	7	advance_on_keypress_ZEE	70	stimuli_target_trianglecircles.svg	stimuli_distractor_trianglediamonds.svg	17	yes	57	0	228
6.6.1	win	2022-11-07	11:41:54	11:49:56	480358	61114b774f9199a8f8f75de2	626826950	1	main_z	7	main_z	71	stimuli_target_diamondcircles.svg	stimuli_distractor_diamondtriangles.svg	23	yes	44	1	585
6.6.1	win	2022-11-07	11:41:54	11:49:56	480358	61114b774f9199a8f8f75de2	626826950	1	main_z	7	advance_on_keypress_ZEE	72	stimuli_target_diamondcircles.svg	stimuli_distractor_diamondtriangles.svg	23	yes	57	0	208
6.6.1	win	2022-11-07	11:41:54	11:49:57	481711	61114b774f9199a8f8f75de2	626826950	1	main_z	7	main_z	73	stimuli_target_trianglecircles.svg	stimuli_distractor_diamondtriangles.svg	21	yes	44	1	504
6.6.1	win	2022-11-07	11:41:54	11:49:57	481711	61114b774f9199a8f8f75de2	626826950	1	main_z	7	advance_on_keypress_ZEE	74	stimuli_target_trianglecircles.svg	stimuli_distractor_diamondtriangles.svg	21	yes	57	0	242
6.6.1	win	2022-11-07	11:41:54	11:49:59	483142	61114b774f9199a8f8f75de2	626826950	1	main_z	7	main_z	75	stimuli_distractor_diamondtriangles.svg	stimuli_target_diamondcircles.svg	31	yes	44	1	551
6.6.1	win	2022-11-07	11:41:54	11:49:59	483142	61114b774f9199a8f8f75de2	626826950	1	main_z	7	advance_on_keypress_ZEE	76	stimuli_distractor_diamondtriangles.svg	stimuli_target_diamondcircles.svg	31	yes	57	0	151
6.6.1	win	2022-11-07	11:41:54	11:50:01	485943	61114b774f9199a8f8f75de2	626826950	1	main_z	7	main_z	77	stimuli_distractor_diamondtriangles.svg	stimuli_distractor_diamondtriangles.svg	40	no	0	1	2000
6.6.1	win	2022-11-07	11:41:54	11:50:01	485943	61114b774f9199a8f8f75de2	626826950	1	main_z	7	advance_on_keypress_ZEE	78	stimuli_distractor_diamondtriangles.svg	stimuli_distractor_diamondtriangles.svg	40	no	57	0	540
6.6.1	win	2022-11-07	11:41:54	11:50:04	488327	61114b774f9199a8f8f75de2	626826950	1	main_z	7	main_z	79	stimuli_distractor_diamondtriangles.svg	stimuli_target_squarediamonds.svg	16	yes	44	1	1198
6.6.1	win	2022-11-07	11:41:54	11:50:04	488327	61114b774f9199a8f8f75de2	626826950	1	main_z	7	advance_on_keypress_ZEE	80	stimuli_distractor_diamondtriangles.svg	stimuli_target_squarediamonds.svg	16	yes	57	0	124
6.6.1	win	2022-11-07	11:41:54	11:50:07	491098	61114b774f9199a8f8f75de2	626826950	1	main_z	7	main_z	81	stimuli_distractor_trianglediamonds.svg	stimuli_distractor_diamondtriangles.svg	35	no	0	1	2000
6.6.1	win	2022-11-07	11:41:54	11:50:07	491098	61114b774f9199a8f8f75de2	626826950	1	main_z	7	advance_on_keypress_ZEE	82	stimuli_distractor_trianglediamonds.svg	stimuli_distractor_diamondtriangles.svg	35	no	57	0	410
6.6.1	win	2022-11-07	11:41:54	11:50:08	492687	61114b774f9199a8f8f75de2	626826950	1	main_z	7	main_z	83	stimuli_target_trianglecircles.svg	stimuli_distractor_diamondtriangles.svg	21	yes	44	1	536
6.6.1	win	2022-11-07	11:41:54	11:50:08	492687	61114b774f9199a8f8f75de2	626826950	1	main_z	7	advance_on_keypress_ZEE	84	stimuli_target_trianglecircles.svg	stimuli_distractor_diamondtriangles.svg	21	yes	57	0	185
6.6.1	win	2022-11-07	11:41:54	11:50:10	494120	61114b774f9199a8f8f75de2	626826950	1	main_z	7	main_z	85	stimuli_distractor_trianglediamonds.svg	stimuli_target_diamondcircles.svg	27	yes	44	1	600
6.6.1	win	2022-11-07	11:41:54	11:50:10	494120	61114b774f9199a8f8f75de2	626826950	1	main_z	7	advance_on_keypress_ZEE	86	stimuli_distractor_trianglediamonds.svg	stimuli_target_diamondcircles.svg	27	yes	57	0	167
6.6.1	win	2022-11-07	11:41:54	11:50:11	495512	61114b774f9199a8f8f75de2	626826950	1	main_z	7	main_z	87	stimuli_distractor_trianglediamonds.svg	stimuli_target_trianglecircles.svg	25	yes	44	1	575
6.6.1	win	2022-11-07	11:41:54	11:50:11	495512	61114b774f9199a8f8f75de2	626826950	1	main_z	7	advance_on_keypress_ZEE	88	stimuli_distractor_trianglediamonds.svg	stimuli_target_trianglecircles.svg	25	yes	57	0	167
6.6.1	win	2022-11-07	11:41:54	11:50:14	498322	61114b774f9199a8f8f75de2	626826950	1	main_z	7	main_z	89	stimuli_distractor_diamondtriangles.svg	stimuli_distractor_trianglediamonds.svg	38	no	0	1	2000
6.6.1	win	2022-11-07	11:41:54	11:50:14	498322	61114b774f9199a8f8f75de2	626826950	1	main_z	7	advance_on_keypress_ZEE	90	stimuli_distractor_diamondtriangles.svg	stimuli_distractor_trianglediamonds.svg	38	no	57	0	763
6.6.1	win	2022-11-07	11:41:54	11:50:17	501742	61114b774f9199a8f8f75de2	626826950	1	main_z	7	main_z	91	stimuli_distractor_diamondtriangles.svg	stimuli_distractor_diamondtriangles.svg	39	no	0	1	2000
6.6.1	win	2022-11-07	11:41:54	11:50:17	501742	61114b774f9199a8f8f75de2	626826950	1	main_z	7	advance_on_keypress_ZEE	92	stimuli_distractor_diamondtriangles.svg	stimuli_distractor_diamondtriangles.svg	39	no	57	0	392
6.6.1	win	2022-11-07	11:41:54	11:50:19	503441	61114b774f9199a8f8f75de2	626826950	1	main_z	7	main_z	93	stimuli_target_circletriangles.svg	stimuli_distractor_trianglediamonds.svg	1	yes	44	1	663
6.6.1	win	2022-11-07	11:41:54	11:50:19	503441	61114b774f9199a8f8f75de2	626826950	1	main_z	7	advance_on_keypress_ZEE	94	stimuli_target_circletriangles.svg	stimuli_distractor_trianglediamonds.svg	1	yes	57	0	179
6.6.1	win	2022-11-07	11:41:54	11:50:21	505049	61114b774f9199a8f8f75de2	626826950	1	main_z	7	main_z	95	stimuli_distractor_diamondtriangles.svg	stimuli_target_circlediamonds.svg	14	yes	44	1	803
6.6.1	win	2022-11-07	11:41:54	11:50:21	505049	61114b774f9199a8f8f75de2	626826950	1	main_z	7	advance_on_keypress_ZEE	96	stimuli_distractor_diamondtriangles.svg	stimuli_target_circlediamonds.svg	14	yes	57	0	209
6.6.1	win	2022-11-07	11:41:54	11:50:23	507169	61114b774f9199a8f8f75de2	626826950	1	main_z	7	main_z	97	stimuli_target_diamondcircles.svg	stimuli_distractor_trianglediamonds.svg	19	yes	44	1	1271
6.6.1	win	2022-11-07	11:41:54	11:50:23	507169	61114b774f9199a8f8f75de2	626826950	1	main_z	7	advance_on_keypress_ZEE	98	stimuli_target_diamondcircles.svg	stimuli_distractor_trianglediamonds.svg	19	yes	57	0	170
6.6.1	win	2022-11-07	11:41:54	11:50:25	509983	61114b774f9199a8f8f75de2	626826950	1	main_z	7	main_z	99	stimuli_distractor_trianglediamonds.svg	stimuli_target_diamondsquares.svg	28	yes	0	0	2000
6.6.1	win	2022-11-07	11:41:54	11:50:25	509983	61114b774f9199a8f8f75de2	626826950	1	main_z	7	advance_on_keypress_ZEE	100	stimuli_distractor_trianglediamonds.svg	stimuli_target_diamondsquares.svg	28	yes	57	0	800
6.6.1	win	2022-11-07	11:41:54	11:50:27	511986	61114b774f9199a8f8f75de2	626826950	1	main_z	7	main_z	101	stimuli_target_circlediamonds.svg	stimuli_distractor_trianglediamonds.svg	2	yes	44	1	550
6.6.1	win	2022-11-07	11:41:54	11:50:27	511986	61114b774f9199a8f8f75de2	626826950	1	main_z	7	advance_on_keypress_ZEE	102	stimuli_target_circlediamonds.svg	stimuli_distractor_trianglediamonds.svg	2	yes	57	0	206
6.6.1	win	2022-11-07	11:41:54	11:50:30	514838	61114b774f9199a8f8f75de2	626826950	1	main_z	7	main_z	103	stimuli_target_trianglesquares.svg	stimuli_distractor_trianglediamonds.svg	18	yes	0	0	2000
6.6.1	win	2022-11-07	11:41:54	11:50:30	514838	61114b774f9199a8f8f75de2	626826950	1	main_z	7	advance_on_keypress_ZEE	104	stimuli_target_trianglesquares.svg	stimuli_distractor_trianglediamonds.svg	18	yes	57	0	1001
6.6.1	win	2022-11-07	11:41:54	11:50:33	517307	61114b774f9199a8f8f75de2	626826950	1	main_z	7	main_z	105	stimuli_target_squaretriangles.svg	stimuli_distractor_diamondtriangles.svg	7	yes	44	1	816
6.6.1	win	2022-11-07	11:41:54	11:50:33	517307	61114b774f9199a8f8f75de2	626826950	1	main_z	7	advance_on_keypress_ZEE	106	stimuli_target_squaretriangles.svg	stimuli_distractor_diamondtriangles.svg	7	yes	57	0	157
6.6.1	win	2022-11-07	11:41:54	11:50:35	519899	61114b774f9199a8f8f75de2	626826950	1	main_z	7	main_z	107	stimuli_distractor_trianglediamonds.svg	stimuli_distractor_trianglediamonds.svg	33	no	44	0	1789
6.6.1	win	2022-11-07	11:41:54	11:50:35	519899	61114b774f9199a8f8f75de2	626826950	1	main_z	7	advance_on_keypress_ZEE	108	stimuli_distractor_trianglediamonds.svg	stimuli_distractor_trianglediamonds.svg	33	no	57	0	267
6.6.1	win	2022-11-07	11:41:54	11:50:37	521748	61114b774f9199a8f8f75de2	626826950	1	main_z	7	main_z	109	stimuli_target_squaretriangles.svg	stimuli_distractor_trianglediamonds.svg	3	yes	44	1	934
6.6.1	win	2022-11-07	11:41:54	11:50:37	521748	61114b774f9199a8f8f75de2	626826950	1	main_z	7	advance_on_keypress_ZEE	110	stimuli_target_squaretriangles.svg	stimuli_distractor_trianglediamonds.svg	3	yes	57	0	175
6.6.1	win	2022-11-07	11:41:54	11:50:39	523180	61114b774f9199a8f8f75de2	626826950	1	main_z	7	main_z	111	stimuli_distractor_diamondtriangles.svg	stimuli_target_circletriangles.svg	13	yes	44	1	616
6.6.1	win	2022-11-07	11:41:54	11:50:39	523180	61114b774f9199a8f8f75de2	626826950	1	main_z	7	advance_on_keypress_ZEE	112	stimuli_distractor_diamondtriangles.svg	stimuli_target_circletriangles.svg	13	yes	57	0	181
6.6.1	win	2022-11-07	11:41:54	11:50:40	524900	61114b774f9199a8f8f75de2	626826950	1	main_z	7	main_z	113	stimuli_distractor_diamondtriangles.svg	stimuli_target_squarediamonds.svg	16	yes	44	1	884
6.6.1	win	2022-11-07	11:41:54	11:50:40	524900	61114b774f9199a8f8f75de2	626826950	1	main_z	7	advance_on_keypress_ZEE	114	stimuli_distractor_diamondtriangles.svg	stimuli_target_squarediamonds.svg	16	yes	57	0	167
6.6.1	win	2022-11-07	11:41:54	11:50:42	526404	61114b774f9199a8f8f75de2	626826950	1	main_z	7	main_z	115	stimuli_target_squarediamonds.svg	stimuli_distractor_trianglediamonds.svg	4	yes	44	1	687
6.6.1	win	2022-11-07	11:41:54	11:50:42	526404	61114b774f9199a8f8f75de2	626826950	1	main_z	7	advance_on_keypress_ZEE	116	stimuli_target_squarediamonds.svg	stimuli_distractor_trianglediamonds.svg	4	yes	57	0	201
6.6.1	win	2022-11-07	11:41:54	11:50:45	529252	61114b774f9199a8f8f75de2	626826950	1	main_z	7	main_z	117	stimuli_distractor_diamondtriangles.svg	stimuli_target_trianglesquares.svg	30	yes	0	0	2000
6.6.1	win	2022-11-07	11:41:54	11:50:45	529252	61114b774f9199a8f8f75de2	626826950	1	main_z	7	advance_on_keypress_ZEE	118	stimuli_distractor_diamondtriangles.svg	stimuli_target_trianglesquares.svg	30	yes	57	0	261
6.6.1	win	2022-11-07	11:41:54	11:50:48	532155	61114b774f9199a8f8f75de2	626826950	1	main_z	7	main_z	119	stimuli_distractor_trianglediamonds.svg	stimuli_target_trianglesquares.svg	26	yes	0	0	2000
6.6.1	win	2022-11-07	11:41:54	11:50:48	532155	61114b774f9199a8f8f75de2	626826950	1	main_z	7	advance_on_keypress_ZEE	120	stimuli_distractor_trianglediamonds.svg	stimuli_target_trianglesquares.svg	26	yes	57	0	271
6.6.1	win	2022-11-07	11:41:54	11:50:49	533933	61114b774f9199a8f8f75de2	626826950	1	main_z	7	main_z	121	stimuli_distractor_trianglediamonds.svg	stimuli_target_squarediamonds.svg	12	yes	44	1	858
6.6.1	win	2022-11-07	11:41:54	11:50:49	533933	61114b774f9199a8f8f75de2	626826950	1	main_z	7	advance_on_keypress_ZEE	122	stimuli_distractor_trianglediamonds.svg	stimuli_target_squarediamonds.svg	12	yes	57	0	182
6.6.1	win	2022-11-07	11:41:54	11:50:51	535790	61114b774f9199a8f8f75de2	626826950	1	main_z	7	main_z	123	stimuli_distractor_diamondtriangles.svg	stimuli_target_diamondsquares.svg	32	yes	44	1	1029
6.6.1	win	2022-11-07	11:41:54	11:50:51	535790	61114b774f9199a8f8f75de2	626826950	1	main_z	7	advance_on_keypress_ZEE	124	stimuli_distractor_diamondtriangles.svg	stimuli_target_diamondsquares.svg	32	yes	57	0	178
6.6.1	win	2022-11-07	11:41:54	11:50:53	537766	61114b774f9199a8f8f75de2	626826950	1	main_z	7	main_z	125	stimuli_target_trianglesquares.svg	stimuli_distractor_diamondtriangles.svg	22	yes	44	1	1171
6.6.1	win	2022-11-07	11:41:54	11:50:53	537766	61114b774f9199a8f8f75de2	626826950	1	main_z	7	advance_on_keypress_ZEE	126	stimuli_target_trianglesquares.svg	stimuli_distractor_diamondtriangles.svg	22	yes	57	0	162
6.6.1	win	2022-11-07	11:41:54	11:50:55	539214	61114b774f9199a8f8f75de2	626826950	1	main_z	7	main_z	127	stimuli_distractor_diamondtriangles.svg	stimuli_target_diamondcircles.svg	31	yes	44	1	651
6.6.1	win	2022-11-07	11:41:54	11:50:55	539214	61114b774f9199a8f8f75de2	626826950	1	main_z	7	advance_on_keypress_ZEE	128	stimuli_distractor_diamondtriangles.svg	stimuli_target_diamondcircles.svg	31	yes	57	0	191
6.6.1	win	2022-11-07	11:41:54	11:50:58	542048	61114b774f9199a8f8f75de2	626826950	1	main_z	7	main_z	129	stimuli_distractor_diamondtriangles.svg	stimuli_distractor_trianglediamonds.svg	37	no	0	1	2000
6.6.1	win	2022-11-07	11:41:54	11:50:58	542048	61114b774f9199a8f8f75de2	626826950	1	main_z	7	advance_on_keypress_ZEE	130	stimuli_distractor_diamondtriangles.svg	stimuli_distractor_trianglediamonds.svg	37	no	57	0	515
6.6.1	win	2022-11-07	11:41:54	11:50:59	543767	61114b774f9199a8f8f75de2	626826950	1	main_z	7	main_z	131	stimuli_target_circletriangles.svg	stimuli_distractor_diamondtriangles.svg	5	yes	44	1	549
6.6.1	win	2022-11-07	11:41:54	11:50:59	543767	61114b774f9199a8f8f75de2	626826950	1	main_z	7	advance_on_keypress_ZEE	132	stimuli_target_circletriangles.svg	stimuli_distractor_diamondtriangles.svg	5	yes	57	0	189
6.6.1	win	2022-11-07	11:41:54	11:51:01	545143	61114b774f9199a8f8f75de2	626826950	1	main_z	7	main_z	133	stimuli_target_circlediamonds.svg	stimuli_distractor_diamondtriangles.svg	6	yes	44	1	540
6.6.1	win	2022-11-07	11:41:54	11:51:01	545143	61114b774f9199a8f8f75de2	626826950	1	main_z	7	advance_on_keypress_ZEE	134	stimuli_target_circlediamonds.svg	stimuli_distractor_diamondtriangles.svg	6	yes	57	0	181
6.6.1	win	2022-11-07	11:41:54	11:51:02	546687	61114b774f9199a8f8f75de2	626826950	1	main_z	7	main_z	135	stimuli_target_squarediamonds.svg	stimuli_distractor_diamondtriangles.svg	8	yes	44	1	716
6.6.1	win	2022-11-07	11:41:54	11:51:02	546687	61114b774f9199a8f8f75de2	626826950	1	main_z	7	advance_on_keypress_ZEE	136	stimuli_target_squarediamonds.svg	stimuli_distractor_diamondtriangles.svg	8	yes	57	0	158
6.6.1	win	2022-11-07	11:41:54	11:51:04	548368	61114b774f9199a8f8f75de2	626826950	1	main_z	7	main_z	137	stimuli_target_diamondsquares.svg	stimuli_distractor_diamondtriangles.svg	24	yes	44	1	878
6.6.1	win	2022-11-07	11:41:54	11:51:04	548368	61114b774f9199a8f8f75de2	626826950	1	main_z	7	advance_on_keypress_ZEE	138	stimuli_target_diamondsquares.svg	stimuli_distractor_diamondtriangles.svg	24	yes	57	0	169
6.6.1	win	2022-11-07	11:41:54	11:51:05	549696	61114b774f9199a8f8f75de2	626826950	1	main_z	7	main_z	139	stimuli_target_trianglecircles.svg	stimuli_distractor_trianglediamonds.svg	17	yes	44	1	521
6.6.1	win	2022-11-07	11:41:54	11:51:05	549696	61114b774f9199a8f8f75de2	626826950	1	main_z	7	advance_on_keypress_ZEE	140	stimuli_target_trianglecircles.svg	stimuli_distractor_trianglediamonds.svg	17	yes	57	0	196
6.6.1	win	2022-11-07	11:41:54	11:51:07	551376	61114b774f9199a8f8f75de2	626826950	1	main_z	7	main_z	141	stimuli_distractor_trianglediamonds.svg	stimuli_target_squaretriangles.svg	11	yes	44	1	851
6.6.1	win	2022-11-07	11:41:54	11:51:07	551376	61114b774f9199a8f8f75de2	626826950	1	main_z	7	advance_on_keypress_ZEE	142	stimuli_distractor_trianglediamonds.svg	stimuli_target_squaretriangles.svg	11	yes	57	0	159
6.6.1	win	2022-11-07	11:41:54	11:51:08	552744	61114b774f9199a8f8f75de2	626826950	1	main_z	7	main_z	143	stimuli_distractor_diamondtriangles.svg	stimuli_target_trianglecircles.svg	29	yes	44	1	567
6.6.1	win	2022-11-07	11:41:54	11:51:08	552744	61114b774f9199a8f8f75de2	626826950	1	main_z	7	advance_on_keypress_ZEE	144	stimuli_distractor_diamondtriangles.svg	stimuli_target_trianglecircles.svg	29	yes	57	0	294
6.6.1	win	2022-11-07	11:41:54	11:51:11	555432	61114b774f9199a8f8f75de2	626826950	1	main_z	7	main_z	145	stimuli_distractor_diamondtriangles.svg	stimuli_target_squaretriangles.svg	15	yes	44	1	1754
6.6.1	win	2022-11-07	11:41:54	11:51:11	555432	61114b774f9199a8f8f75de2	626826950	1	main_z	7	advance_on_keypress_ZEE	146	stimuli_distractor_diamondtriangles.svg	stimuli_target_squaretriangles.svg	15	yes	57	0	113
6.6.1	win	2022-11-07	11:41:54	11:51:12	556777	61114b774f9199a8f8f75de2	626826950	1	main_z	7	main_z	147	stimuli_target_diamondsquares.svg	stimuli_distractor_trianglediamonds.svg	20	yes	44	1	578
6.6.1	win	2022-11-07	11:41:54	11:51:12	556777	61114b774f9199a8f8f75de2	626826950	1	main_z	7	advance_on_keypress_ZEE	148	stimuli_target_diamondsquares.svg	stimuli_distractor_trianglediamonds.svg	20	yes	57	0	170
6.6.1	win	2022-11-07	11:41:54	11:51:14	558177	61114b774f9199a8f8f75de2	626826950	1	main_z	7	main_z	149	stimuli_distractor_trianglediamonds.svg	stimuli_target_circlediamonds.svg	10	yes	44	1	595
6.6.1	win	2022-11-07	11:41:54	11:51:14	558177	61114b774f9199a8f8f75de2	626826950	1	main_z	7	advance_on_keypress_ZEE	150	stimuli_distractor_trianglediamonds.svg	stimuli_target_circlediamonds.svg	10	yes	57	0	169
6.6.1	win	2022-11-07	11:41:54	11:51:16	560984	61114b774f9199a8f8f75de2	626826950	1	main_z	7	main_z	151	stimuli_distractor_diamondtriangles.svg	stimuli_distractor_diamondtriangles.svg	40	no	0	1	2000
6.6.1	win	2022-11-07	11:41:54	11:51:16	560984	61114b774f9199a8f8f75de2	626826950	1	main_z	7	advance_on_keypress_ZEE	152	stimuli_distractor_diamondtriangles.svg	stimuli_distractor_diamondtriangles.svg	40	no	57	0	406
6.6.1	win	2022-11-07	11:41:54	11:51:18	562834	61114b774f9199a8f8f75de2	626826950	1	main_z	7	main_z	153	stimuli_distractor_trianglediamonds.svg	stimuli_distractor_diamondtriangles.svg	36	no	44	0	796
6.6.1	win	2022-11-07	11:41:54	11:51:18	562834	61114b774f9199a8f8f75de2	626826950	1	main_z	7	advance_on_keypress_ZEE	154	stimuli_distractor_trianglediamonds.svg	stimuli_distractor_diamondtriangles.svg	36	no	57	0	211
6.6.1	win	2022-11-07	11:41:54	11:51:20	564274	61114b774f9199a8f8f75de2	626826950	1	main_z	7	main_z	155	stimuli_target_diamondcircles.svg	stimuli_distractor_diamondtriangles.svg	23	yes	44	1	602
6.6.1	win	2022-11-07	11:41:54	11:51:20	564274	61114b774f9199a8f8f75de2	626826950	1	main_z	7	advance_on_keypress_ZEE	156	stimuli_target_diamondcircles.svg	stimuli_distractor_diamondtriangles.svg	23	yes	57	0	160
6.6.1	win	2022-11-07	11:41:54	11:51:21	565618	61114b774f9199a8f8f75de2	626826950	1	main_z	7	main_z	157	stimuli_distractor_trianglediamonds.svg	stimuli_target_circletriangles.svg	9	yes	44	1	545
6.6.1	win	2022-11-07	11:41:54	11:51:21	565618	61114b774f9199a8f8f75de2	626826950	1	main_z	7	advance_on_keypress_ZEE	158	stimuli_distractor_trianglediamonds.svg	stimuli_target_circletriangles.svg	9	yes	57	0	186
6.6.1	win	2022-11-07	11:41:54	11:51:23	567930	61114b774f9199a8f8f75de2	626826950	1	main_z	7	main_z	159	stimuli_distractor_trianglediamonds.svg	stimuli_distractor_trianglediamonds.svg	34	no	44	0	1489
6.6.1	win	2022-11-07	11:41:54	11:51:23	567930	61114b774f9199a8f8f75de2	626826950	1	main_z	7	advance_on_keypress_ZEE	160	stimuli_distractor_trianglediamonds.svg	stimuli_distractor_trianglediamonds.svg	34	no	57	0	131
6.6.1	win	2022-11-07	11:41:54	11:51:52	596448	61114b774f9199a8f8f75de2	626826950	1	practice_slash	9	practice_slash	1	stimuli_distractor_trianglediamonds.svg	stimuli_target_diamondcircles.svg	12	yes	53	1	1210
6.6.1	win	2022-11-07	11:41:54	11:51:52	596448	61114b774f9199a8f8f75de2	626826950	1	practice_slash	9	advance_on_keypress_SLASH	2	stimuli_distractor_trianglediamonds.svg	stimuli_target_diamondcircles.svg	12	yes	57	0	879
6.6.1	win	2022-11-07	11:41:54	11:51:56	600974	61114b774f9199a8f8f75de2	626826950	1	practice_slash	9	practice_slash	3	stimuli_distractor_diamondtriangles.svg	stimuli_distractor_diamondtriangles.svg	13	no	0	1	2000
6.6.1	win	2022-11-07	11:41:54	11:51:56	600974	61114b774f9199a8f8f75de2	626826950	1	practice_slash	9	advance_on_keypress_SLASH	4	stimuli_distractor_diamondtriangles.svg	stimuli_distractor_diamondtriangles.svg	13	no	57	0	926
6.6.1	win	2022-11-07	11:41:54	11:52:00	604401	61114b774f9199a8f8f75de2	626826950	1	practice_slash	9	practice_slash	5	stimuli_target_squarediamonds.svg	stimuli_distractor_diamondtriangles.svg	2	yes	53	1	855
6.6.1	win	2022-11-07	11:41:54	11:52:00	604401	61114b774f9199a8f8f75de2	626826950	1	practice_slash	9	advance_on_keypress_SLASH	6	stimuli_target_squarediamonds.svg	stimuli_distractor_diamondtriangles.svg	2	yes	57	0	763
6.6.1	win	2022-11-07	11:41:54	11:52:03	607801	61114b774f9199a8f8f75de2	626826950	1	practice_slash	9	practice_slash	7	stimuli_distractor_diamondtriangles.svg	stimuli_target_circletriangles.svg	7	yes	53	1	986
6.6.1	win	2022-11-07	11:41:54	11:52:03	607801	61114b774f9199a8f8f75de2	626826950	1	practice_slash	9	advance_on_keypress_SLASH	8	stimuli_distractor_diamondtriangles.svg	stimuli_target_circletriangles.svg	7	yes	57	0	520
6.6.1	win	2022-11-07	11:41:54	11:52:06	610626	61114b774f9199a8f8f75de2	626826950	1	practice_slash	9	practice_slash	9	stimuli_target_circlediamonds.svg	stimuli_distractor_trianglediamonds.svg	4	yes	53	1	657
6.6.1	win	2022-11-07	11:41:54	11:52:06	610626	61114b774f9199a8f8f75de2	626826950	1	practice_slash	9	advance_on_keypress_SLASH	10	stimuli_target_circlediamonds.svg	stimuli_distractor_trianglediamonds.svg	4	yes	57	0	708
6.6.1	win	2022-11-07	11:41:54	11:52:10	614971	61114b774f9199a8f8f75de2	626826950	1	practice_slash	9	practice_slash	11	stimuli_distractor_trianglediamonds.svg	stimuli_distractor_diamondtriangles.svg	16	no	0	1	2000
6.6.1	win	2022-11-07	11:41:54	11:52:10	614971	61114b774f9199a8f8f75de2	626826950	1	practice_slash	9	advance_on_keypress_SLASH	12	stimuli_distractor_trianglediamonds.svg	stimuli_distractor_diamondtriangles.svg	16	no	57	0	731
6.6.1	win	2022-11-07	11:41:54	11:52:14	618091	61114b774f9199a8f8f75de2	626826950	1	practice_slash	9	practice_slash	13	stimuli_target_squarediamonds.svg	stimuli_distractor_trianglediamonds.svg	5	yes	53	1	731
6.6.1	win	2022-11-07	11:41:54	11:52:14	618091	61114b774f9199a8f8f75de2	626826950	1	practice_slash	9	advance_on_keypress_SLASH	14	stimuli_target_squarediamonds.svg	stimuli_distractor_trianglediamonds.svg	5	yes	57	0	83
6.6.1	win	2022-11-07	11:41:54	11:52:16	620427	61114b774f9199a8f8f75de2	626826950	1	practice_slash	9	practice_slash	15	stimuli_target_circlediamonds.svg	stimuli_distractor_diamondtriangles.svg	1	yes	53	1	599
6.6.1	win	2022-11-07	11:41:54	11:52:16	620427	61114b774f9199a8f8f75de2	626826950	1	practice_slash	9	advance_on_keypress_SLASH	16	stimuli_target_circlediamonds.svg	stimuli_distractor_diamondtriangles.svg	1	yes	57	0	668
6.6.1	win	2022-11-07	11:41:54	11:52:19	623380	61114b774f9199a8f8f75de2	626826950	1	practice_slash	9	practice_slash	17	stimuli_distractor_trianglediamonds.svg	stimuli_target_circlediamonds.svg	10	yes	53	1	632
6.6.1	win	2022-11-07	11:41:54	11:52:19	623380	61114b774f9199a8f8f75de2	626826950	1	practice_slash	9	advance_on_keypress_SLASH	18	stimuli_distractor_trianglediamonds.svg	stimuli_target_circlediamonds.svg	10	yes	57	0	691
6.6.1	win	2022-11-07	11:41:54	11:52:22	626316	61114b774f9199a8f8f75de2	626826950	1	practice_slash	9	practice_slash	19	stimuli_distractor_diamondtriangles.svg	stimuli_target_diamondcircles.svg	8	yes	53	1	598
6.6.1	win	2022-11-07	11:41:54	11:52:22	626316	61114b774f9199a8f8f75de2	626826950	1	practice_slash	9	advance_on_keypress_SLASH	20	stimuli_distractor_diamondtriangles.svg	stimuli_target_diamondcircles.svg	8	yes	57	0	532
6.6.1	win	2022-11-07	11:41:54	11:52:25	629652	61114b774f9199a8f8f75de2	626826950	1	practice_slash	9	practice_slash	21	stimuli_target_diamondsquares.svg	stimuli_distractor_trianglediamonds.svg	6	yes	53	1	1149
6.6.1	win	2022-11-07	11:41:54	11:52:25	629652	61114b774f9199a8f8f75de2	626826950	1	practice_slash	9	advance_on_keypress_SLASH	22	stimuli_target_diamondsquares.svg	stimuli_distractor_trianglediamonds.svg	6	yes	57	0	740
6.6.1	win	2022-11-07	11:41:54	11:52:29	633382	61114b774f9199a8f8f75de2	626826950	1	practice_slash	9	practice_slash	23	stimuli_distractor_trianglediamonds.svg	stimuli_target_squarediamonds.svg	11	yes	53	1	1340
6.6.1	win	2022-11-07	11:41:54	11:52:29	633382	61114b774f9199a8f8f75de2	626826950	1	practice_slash	9	advance_on_keypress_SLASH	24	stimuli_distractor_trianglediamonds.svg	stimuli_target_squarediamonds.svg	11	yes	57	0	460
6.6.1	win	2022-11-07	11:41:54	11:52:33	637477	61114b774f9199a8f8f75de2	626826950	1	practice_slash	9	practice_slash	25	stimuli_target_diamondsquares.svg	stimuli_distractor_diamondtriangles.svg	3	yes	0	0	2000
6.6.1	win	2022-11-07	11:41:54	11:52:33	637477	61114b774f9199a8f8f75de2	626826950	1	practice_slash	9	advance_on_keypress_SLASH	26	stimuli_target_diamondsquares.svg	stimuli_distractor_diamondtriangles.svg	3	yes	57	0	500
6.6.1	win	2022-11-07	11:41:54	11:52:36	640126	61114b774f9199a8f8f75de2	626826950	1	practice_slash	9	practice_slash	27	stimuli_distractor_diamondtriangles.svg	stimuli_target_trianglecircles.svg	9	yes	53	1	494
6.6.1	win	2022-11-07	11:41:54	11:52:36	640126	61114b774f9199a8f8f75de2	626826950	1	practice_slash	9	advance_on_keypress_SLASH	28	stimuli_distractor_diamondtriangles.svg	stimuli_target_trianglecircles.svg	9	yes	57	0	705
6.6.1	win	2022-11-07	11:41:54	11:52:40	644467	61114b774f9199a8f8f75de2	626826950	1	practice_slash	9	practice_slash	29	stimuli_distractor_diamondtriangles.svg	stimuli_distractor_trianglediamonds.svg	14	no	0	1	2000
6.6.1	win	2022-11-07	11:41:54	11:52:40	644467	61114b774f9199a8f8f75de2	626826950	1	practice_slash	9	advance_on_keypress_SLASH	30	stimuli_distractor_diamondtriangles.svg	stimuli_distractor_trianglediamonds.svg	14	no	57	0	631
6.6.1	win	2022-11-07	11:41:54	11:52:43	647999	61114b774f9199a8f8f75de2	626826950	1	practice_slash	9	practice_slash	31	stimuli_distractor_trianglediamonds.svg	stimuli_distractor_trianglediamonds.svg	15	no	53	0	1244
6.6.1	win	2022-11-07	11:41:54	11:52:43	647999	61114b774f9199a8f8f75de2	626826950	1	practice_slash	9	advance_on_keypress_SLASH	32	stimuli_distractor_trianglediamonds.svg	stimuli_distractor_trianglediamonds.svg	15	no	57	0	879
6.6.1	win	2022-11-07	11:41:54	11:52:50	654527	61114b774f9199a8f8f75de2	626826950	1	main_slash	11	main_slash	1	stimuli_distractor_diamondtriangles.svg	stimuli_target_squaretriangles.svg	15	yes	0	0	2000
6.6.1	win	2022-11-07	11:41:54	11:52:50	654527	61114b774f9199a8f8f75de2	626826950	1	main_slash	11	advance_on_keypress_SLASH	2	stimuli_distractor_diamondtriangles.svg	stimuli_target_squaretriangles.svg	15	yes	57	0	349
6.6.1	win	2022-11-07	11:41:54	11:52:52	656543	61114b774f9199a8f8f75de2	626826950	1	main_slash	11	main_slash	3	stimuli_distractor_trianglediamonds.svg	stimuli_target_diamondsquares.svg	28	yes	53	1	1013
6.6.1	win	2022-11-07	11:41:54	11:52:52	656543	61114b774f9199a8f8f75de2	626826950	1	main_slash	11	advance_on_keypress_SLASH	4	stimuli_distractor_trianglediamonds.svg	stimuli_target_diamondsquares.svg	28	yes	57	0	627
6.6.1	win	2022-11-07	11:41:54	11:52:54	658664	61114b774f9199a8f8f75de2	626826950	1	main_slash	11	main_slash	5	stimuli_target_diamondsquares.svg	stimuli_distractor_trianglediamonds.svg	20	yes	53	1	864
6.6.1	win	2022-11-07	11:41:54	11:52:54	658664	61114b774f9199a8f8f75de2	626826950	1	main_slash	11	advance_on_keypress_SLASH	6	stimuli_target_diamondsquares.svg	stimuli_distractor_trianglediamonds.svg	20	yes	57	0	315
6.6.1	win	2022-11-07	11:41:54	11:52:56	660288	61114b774f9199a8f8f75de2	626826950	1	main_slash	11	main_slash	7	stimuli_target_trianglecircles.svg	stimuli_distractor_trianglediamonds.svg	17	yes	53	1	653
6.6.1	win	2022-11-07	11:41:54	11:52:56	660288	61114b774f9199a8f8f75de2	626826950	1	main_slash	11	advance_on_keypress_SLASH	8	stimuli_target_trianglecircles.svg	stimuli_distractor_trianglediamonds.svg	17	yes	57	0	242
6.6.1	win	2022-11-07	11:41:54	11:52:59	663169	61114b774f9199a8f8f75de2	626826950	1	main_slash	11	main_slash	9	stimuli_target_trianglesquares.svg	stimuli_distractor_diamondtriangles.svg	22	yes	0	0	2000
6.6.1	win	2022-11-07	11:41:54	11:52:59	663169	61114b774f9199a8f8f75de2	626826950	1	main_slash	11	advance_on_keypress_SLASH	10	stimuli_target_trianglesquares.svg	stimuli_distractor_diamondtriangles.svg	22	yes	57	0	1004
6.6.1	win	2022-11-07	11:41:54	11:53:01	665408	61114b774f9199a8f8f75de2	626826950	1	main_slash	11	main_slash	11	stimuli_distractor_diamondtriangles.svg	stimuli_target_circletriangles.svg	13	yes	53	1	585
6.6.1	win	2022-11-07	11:41:54	11:53:01	665408	61114b774f9199a8f8f75de2	626826950	1	main_slash	11	advance_on_keypress_SLASH	12	stimuli_distractor_diamondtriangles.svg	stimuli_target_circletriangles.svg	13	yes	57	0	248
6.6.1	win	2022-11-07	11:41:54	11:53:02	666897	61114b774f9199a8f8f75de2	626826950	1	main_slash	11	main_slash	13	stimuli_distractor_trianglediamonds.svg	stimuli_target_trianglecircles.svg	25	yes	53	1	588
6.6.1	win	2022-11-07	11:41:54	11:53:02	666897	61114b774f9199a8f8f75de2	626826950	1	main_slash	11	advance_on_keypress_SLASH	14	stimuli_distractor_trianglediamonds.svg	stimuli_target_trianglecircles.svg	25	yes	57	0	227
6.6.1	win	2022-11-07	11:41:54	11:53:04	668609	61114b774f9199a8f8f75de2	626826950	1	main_slash	11	main_slash	15	stimuli_target_circletriangles.svg	stimuli_distractor_trianglediamonds.svg	1	yes	53	1	850
6.6.1	win	2022-11-07	11:41:54	11:53:04	668609	61114b774f9199a8f8f75de2	626826950	1	main_slash	11	advance_on_keypress_SLASH	16	stimuli_target_circletriangles.svg	stimuli_distractor_trianglediamonds.svg	1	yes	57	0	238
6.6.1	win	2022-11-07	11:41:54	11:53:06	670369	61114b774f9199a8f8f75de2	626826950	1	main_slash	11	main_slash	17	stimuli_distractor_diamondtriangles.svg	stimuli_target_circlediamonds.svg	14	yes	53	1	875
6.6.1	win	2022-11-07	11:41:54	11:53:06	670369	61114b774f9199a8f8f75de2	626826950	1	main_slash	11	advance_on_keypress_SLASH	18	stimuli_distractor_diamondtriangles.svg	stimuli_target_circlediamonds.svg	14	yes	57	0	270
6.6.1	win	2022-11-07	11:41:54	11:53:08	672057	61114b774f9199a8f8f75de2	626826950	1	main_slash	11	main_slash	19	stimuli_distractor_trianglediamonds.svg	stimuli_target_trianglesquares.svg	26	yes	53	1	778
6.6.1	win	2022-11-07	11:41:54	11:53:08	672057	61114b774f9199a8f8f75de2	626826950	1	main_slash	11	advance_on_keypress_SLASH	20	stimuli_distractor_trianglediamonds.svg	stimuli_target_trianglesquares.svg	26	yes	57	0	249
6.6.1	win	2022-11-07	11:41:54	11:53:10	674948	61114b774f9199a8f8f75de2	626826950	1	main_slash	11	main_slash	21	stimuli_target_circletriangles.svg	stimuli_distractor_diamondtriangles.svg	5	yes	0	0	2000
6.6.1	win	2022-11-07	11:41:54	11:53:10	674948	61114b774f9199a8f8f75de2	626826950	1	main_slash	11	advance_on_keypress_SLASH	22	stimuli_target_circletriangles.svg	stimuli_distractor_diamondtriangles.svg	5	yes	57	0	915
6.6.1	win	2022-11-07	11:41:54	11:53:14	678518	61114b774f9199a8f8f75de2	626826950	1	main_slash	11	main_slash	23	stimuli_distractor_trianglediamonds.svg	stimuli_distractor_trianglediamonds.svg	34	no	0	1	2000
6.6.1	win	2022-11-07	11:41:54	11:53:14	678518	61114b774f9199a8f8f75de2	626826950	1	main_slash	11	advance_on_keypress_SLASH	24	stimuli_distractor_trianglediamonds.svg	stimuli_distractor_trianglediamonds.svg	34	no	57	0	585
6.6.1	win	2022-11-07	11:41:54	11:53:17	681219	61114b774f9199a8f8f75de2	626826950	1	main_slash	11	main_slash	25	stimuli_target_trianglesquares.svg	stimuli_distractor_trianglediamonds.svg	18	yes	53	1	1465
6.6.1	win	2022-11-07	11:41:54	11:53:17	681219	61114b774f9199a8f8f75de2	626826950	1	main_slash	11	advance_on_keypress_SLASH	26	stimuli_target_trianglesquares.svg	stimuli_distractor_trianglediamonds.svg	18	yes	57	0	139
6.6.1	win	2022-11-07	11:41:54	11:53:18	682835	61114b774f9199a8f8f75de2	626826950	1	main_slash	11	main_slash	27	stimuli_distractor_trianglediamonds.svg	stimuli_target_squarediamonds.svg	12	yes	53	1	845
6.6.1	win	2022-11-07	11:41:54	11:53:18	682835	61114b774f9199a8f8f75de2	626826950	1	main_slash	11	advance_on_keypress_SLASH	28	stimuli_distractor_trianglediamonds.svg	stimuli_target_squarediamonds.svg	12	yes	57	0	170
6.6.1	win	2022-11-07	11:41:54	11:53:21	685641	61114b774f9199a8f8f75de2	626826950	1	main_slash	11	main_slash	29	stimuli_distractor_trianglediamonds.svg	stimuli_distractor_diamondtriangles.svg	36	no	0	1	2000
6.6.1	win	2022-11-07	11:41:54	11:53:21	685641	61114b774f9199a8f8f75de2	626826950	1	main_slash	11	advance_on_keypress_SLASH	30	stimuli_distractor_trianglediamonds.svg	stimuli_distractor_diamondtriangles.svg	36	no	57	0	590
6.6.1	win	2022-11-07	11:41:54	11:53:24	688878	61114b774f9199a8f8f75de2	626826950	1	main_slash	11	main_slash	31	stimuli_distractor_diamondtriangles.svg	stimuli_distractor_trianglediamonds.svg	38	no	0	1	2000
6.6.1	win	2022-11-07	11:41:54	11:53:24	688878	61114b774f9199a8f8f75de2	626826950	1	main_slash	11	advance_on_keypress_SLASH	32	stimuli_distractor_diamondtriangles.svg	stimuli_distractor_trianglediamonds.svg	38	no	57	0	467
6.6.1	win	2022-11-07	11:41:54	11:53:26	690540	61114b774f9199a8f8f75de2	626826950	1	main_slash	11	main_slash	33	stimuli_distractor_diamondtriangles.svg	stimuli_target_trianglesquares.svg	30	yes	53	1	542
6.6.1	win	2022-11-07	11:41:54	11:53:26	690540	61114b774f9199a8f8f75de2	626826950	1	main_slash	11	advance_on_keypress_SLASH	34	stimuli_distractor_diamondtriangles.svg	stimuli_target_trianglesquares.svg	30	yes	57	0	231
6.6.1	win	2022-11-07	11:41:54	11:53:28	692260	61114b774f9199a8f8f75de2	626826950	1	main_slash	11	main_slash	35	stimuli_target_squaretriangles.svg	stimuli_distractor_diamondtriangles.svg	7	yes	53	1	844
6.6.1	win	2022-11-07	11:41:54	11:53:28	692260	61114b774f9199a8f8f75de2	626826950	1	main_slash	11	advance_on_keypress_SLASH	36	stimuli_target_squaretriangles.svg	stimuli_distractor_diamondtriangles.svg	7	yes	57	0	225
6.6.1	win	2022-11-07	11:41:54	11:53:30	694125	61114b774f9199a8f8f75de2	626826950	1	main_slash	11	main_slash	37	stimuli_distractor_trianglediamonds.svg	stimuli_distractor_diamondtriangles.svg	35	no	53	0	1007
6.6.1	win	2022-11-07	11:41:54	11:53:30	694125	61114b774f9199a8f8f75de2	626826950	1	main_slash	11	advance_on_keypress_SLASH	38	stimuli_distractor_trianglediamonds.svg	stimuli_distractor_diamondtriangles.svg	35	no	57	0	180
6.6.1	win	2022-11-07	11:41:54	11:53:31	695557	61114b774f9199a8f8f75de2	626826950	1	main_slash	11	main_slash	39	stimuli_distractor_trianglediamonds.svg	stimuli_target_circlediamonds.svg	10	yes	53	1	604
6.6.1	win	2022-11-07	11:41:54	11:53:31	695557	61114b774f9199a8f8f75de2	626826950	1	main_slash	11	advance_on_keypress_SLASH	40	stimuli_distractor_trianglediamonds.svg	stimuli_target_circlediamonds.svg	10	yes	57	0	187
6.6.1	win	2022-11-07	11:41:54	11:53:32	696933	61114b774f9199a8f8f75de2	626826950	1	main_slash	11	main_slash	41	stimuli_target_squarediamonds.svg	stimuli_distractor_trianglediamonds.svg	4	yes	53	1	545
6.6.1	win	2022-11-07	11:41:54	11:53:32	696933	61114b774f9199a8f8f75de2	626826950	1	main_slash	11	advance_on_keypress_SLASH	42	stimuli_target_squarediamonds.svg	stimuli_distractor_trianglediamonds.svg	4	yes	57	0	202
6.6.1	win	2022-11-07	11:41:54	11:53:34	698461	61114b774f9199a8f8f75de2	626826950	1	main_slash	11	main_slash	43	stimuli_target_diamondsquares.svg	stimuli_distractor_diamondtriangles.svg	24	yes	53	1	689
6.6.1	win	2022-11-07	11:41:54	11:53:34	698461	61114b774f9199a8f8f75de2	626826950	1	main_slash	11	advance_on_keypress_SLASH	44	stimuli_target_diamondsquares.svg	stimuli_distractor_diamondtriangles.svg	24	yes	57	0	188
6.6.1	win	2022-11-07	11:41:54	11:53:37	701291	61114b774f9199a8f8f75de2	626826950	1	main_slash	11	main_slash	45	stimuli_distractor_trianglediamonds.svg	stimuli_target_squaretriangles.svg	11	yes	0	0	2000
6.6.1	win	2022-11-07	11:41:54	11:53:37	701291	61114b774f9199a8f8f75de2	626826950	1	main_slash	11	advance_on_keypress_SLASH	46	stimuli_distractor_trianglediamonds.svg	stimuli_target_squaretriangles.svg	11	yes	57	0	641
6.6.1	win	2022-11-07	11:41:54	11:53:39	703182	61114b774f9199a8f8f75de2	626826950	1	main_slash	11	main_slash	47	stimuli_target_circlediamonds.svg	stimuli_distractor_diamondtriangles.svg	6	yes	53	1	605
6.6.1	win	2022-11-07	11:41:54	11:53:39	703182	61114b774f9199a8f8f75de2	626826950	1	main_slash	11	advance_on_keypress_SLASH	48	stimuli_target_circlediamonds.svg	stimuli_distractor_diamondtriangles.svg	6	yes	57	0	195
6.6.1	win	2022-11-07	11:41:54	11:53:40	704478	61114b774f9199a8f8f75de2	626826950	1	main_slash	11	main_slash	49	stimuli_target_diamondcircles.svg	stimuli_distractor_diamondtriangles.svg	23	yes	53	1	466
6.6.1	win	2022-11-07	11:41:54	11:53:40	704478	61114b774f9199a8f8f75de2	626826950	1	main_slash	11	advance_on_keypress_SLASH	50	stimuli_target_diamondcircles.svg	stimuli_distractor_diamondtriangles.svg	23	yes	57	0	214
6.6.1	win	2022-11-07	11:41:54	11:53:42	706742	61114b774f9199a8f8f75de2	626826950	1	main_slash	11	main_slash	51	stimuli_distractor_diamondtriangles.svg	stimuli_target_diamondsquares.svg	32	yes	53	1	1396
6.6.1	win	2022-11-07	11:41:54	11:53:42	706742	61114b774f9199a8f8f75de2	626826950	1	main_slash	11	advance_on_keypress_SLASH	52	stimuli_distractor_diamondtriangles.svg	stimuli_target_diamondsquares.svg	32	yes	57	0	138
6.6.1	win	2022-11-07	11:41:54	11:53:45	709516	61114b774f9199a8f8f75de2	626826950	1	main_slash	11	main_slash	53	stimuli_distractor_diamondtriangles.svg	stimuli_distractor_diamondtriangles.svg	39	no	0	1	2000
6.6.1	win	2022-11-07	11:41:54	11:53:45	709516	61114b774f9199a8f8f75de2	626826950	1	main_slash	11	advance_on_keypress_SLASH	54	stimuli_distractor_diamondtriangles.svg	stimuli_distractor_diamondtriangles.svg	39	no	57	0	593
6.6.1	win	2022-11-07	11:41:54	11:53:47	711223	61114b774f9199a8f8f75de2	626826950	1	main_slash	11	main_slash	55	stimuli_target_trianglecircles.svg	stimuli_distractor_diamondtriangles.svg	21	yes	53	1	471
6.6.1	win	2022-11-07	11:41:54	11:53:47	711223	61114b774f9199a8f8f75de2	626826950	1	main_slash	11	advance_on_keypress_SLASH	56	stimuli_target_trianglecircles.svg	stimuli_distractor_diamondtriangles.svg	21	yes	57	0	219
6.6.1	win	2022-11-07	11:41:54	11:53:48	712655	61114b774f9199a8f8f75de2	626826950	1	main_slash	11	main_slash	57	stimuli_target_circlediamonds.svg	stimuli_distractor_trianglediamonds.svg	2	yes	53	1	569
6.6.1	win	2022-11-07	11:41:54	11:53:48	712655	61114b774f9199a8f8f75de2	626826950	1	main_slash	11	advance_on_keypress_SLASH	58	stimuli_target_circlediamonds.svg	stimuli_distractor_trianglediamonds.svg	2	yes	57	0	152
6.6.1	win	2022-11-07	11:41:54	11:53:50	714063	61114b774f9199a8f8f75de2	626826950	1	main_slash	11	main_slash	59	stimuli_distractor_diamondtriangles.svg	stimuli_target_trianglecircles.svg	29	yes	53	1	609
6.6.1	win	2022-11-07	11:41:54	11:53:50	714063	61114b774f9199a8f8f75de2	626826950	1	main_slash	11	advance_on_keypress_SLASH	60	stimuli_distractor_diamondtriangles.svg	stimuli_target_trianglecircles.svg	29	yes	57	0	223
6.6.1	win	2022-11-07	11:41:54	11:53:52	716923	61114b774f9199a8f8f75de2	626826950	1	main_slash	11	main_slash	61	stimuli_distractor_trianglediamonds.svg	stimuli_distractor_trianglediamonds.svg	33	no	0	1	2000
6.6.1	win	2022-11-07	11:41:54	11:53:52	716923	61114b774f9199a8f8f75de2	626826950	1	main_slash	11	advance_on_keypress_SLASH	62	stimuli_distractor_trianglediamonds.svg	stimuli_distractor_trianglediamonds.svg	33	no	57	0	426
6.6.1	win	2022-11-07	11:41:54	11:53:54	718528	61114b774f9199a8f8f75de2	626826950	1	main_slash	11	main_slash	63	stimuli_target_squarediamonds.svg	stimuli_distractor_diamondtriangles.svg	8	yes	53	1	536
6.6.1	win	2022-11-07	11:41:54	11:53:54	718528	61114b774f9199a8f8f75de2	626826950	1	main_slash	11	advance_on_keypress_SLASH	64	stimuli_target_squarediamonds.svg	stimuli_distractor_diamondtriangles.svg	8	yes	57	0	113
6.6.1	win	2022-11-07	11:41:54	11:53:55	719824	61114b774f9199a8f8f75de2	626826950	1	main_slash	11	main_slash	65	stimuli_target_diamondcircles.svg	stimuli_distractor_trianglediamonds.svg	19	yes	53	1	547
6.6.1	win	2022-11-07	11:41:54	11:53:55	719824	61114b774f9199a8f8f75de2	626826950	1	main_slash	11	advance_on_keypress_SLASH	66	stimuli_target_diamondcircles.svg	stimuli_distractor_trianglediamonds.svg	19	yes	57	0	196
6.6.1	win	2022-11-07	11:41:54	11:53:58	722645	61114b774f9199a8f8f75de2	626826950	1	main_slash	11	main_slash	67	stimuli_distractor_diamondtriangles.svg	stimuli_target_squarediamonds.svg	16	yes	0	0	2000
6.6.1	win	2022-11-07	11:41:54	11:53:58	722645	61114b774f9199a8f8f75de2	626826950	1	main_slash	11	advance_on_keypress_SLASH	68	stimuli_distractor_diamondtriangles.svg	stimuli_target_squarediamonds.svg	16	yes	57	0	345
6.6.1	win	2022-11-07	11:41:54	11:54:00	724497	61114b774f9199a8f8f75de2	626826950	1	main_slash	11	main_slash	69	stimuli_distractor_diamondtriangles.svg	stimuli_distractor_diamondtriangles.svg	40	no	53	0	866
6.6.1	win	2022-11-07	11:41:54	11:54:00	724497	61114b774f9199a8f8f75de2	626826950	1	main_slash	11	advance_on_keypress_SLASH	70	stimuli_distractor_diamondtriangles.svg	stimuli_distractor_diamondtriangles.svg	40	no	57	0	157
6.6.1	win	2022-11-07	11:41:54	11:54:01	725937	61114b774f9199a8f8f75de2	626826950	1	main_slash	11	main_slash	71	stimuli_distractor_trianglediamonds.svg	stimuli_target_circletriangles.svg	9	yes	53	1	638
6.6.1	win	2022-11-07	11:41:54	11:54:01	725937	61114b774f9199a8f8f75de2	626826950	1	main_slash	11	advance_on_keypress_SLASH	72	stimuli_distractor_trianglediamonds.svg	stimuli_target_circletriangles.svg	9	yes	57	0	210
6.6.1	win	2022-11-07	11:41:54	11:54:04	728785	61114b774f9199a8f8f75de2	626826950	1	main_slash	11	main_slash	73	stimuli_distractor_diamondtriangles.svg	stimuli_distractor_trianglediamonds.svg	37	no	0	1	2000
6.6.1	win	2022-11-07	11:41:54	11:54:04	728785	61114b774f9199a8f8f75de2	626826950	1	main_slash	11	advance_on_keypress_SLASH	74	stimuli_distractor_diamondtriangles.svg	stimuli_distractor_trianglediamonds.svg	37	no	57	0	717
6.6.1	win	2022-11-07	11:41:54	11:54:06	730786	61114b774f9199a8f8f75de2	626826950	1	main_slash	11	main_slash	75	stimuli_distractor_trianglediamonds.svg	stimuli_target_diamondcircles.svg	27	yes	53	1	632
6.6.1	win	2022-11-07	11:41:54	11:54:06	730786	61114b774f9199a8f8f75de2	626826950	1	main_slash	11	advance_on_keypress_SLASH	76	stimuli_distractor_trianglediamonds.svg	stimuli_target_diamondcircles.svg	27	yes	57	0	156
6.6.1	win	2022-11-07	11:41:54	11:54:08	732506	61114b774f9199a8f8f75de2	626826950	1	main_slash	11	main_slash	77	stimuli_target_squaretriangles.svg	stimuli_distractor_trianglediamonds.svg	3	yes	53	1	917
6.6.1	win	2022-11-07	11:41:54	11:54:08	732506	61114b774f9199a8f8f75de2	626826950	1	main_slash	11	advance_on_keypress_SLASH	78	stimuli_target_squaretriangles.svg	stimuli_distractor_trianglediamonds.svg	3	yes	57	0	182
6.6.1	win	2022-11-07	11:41:54	11:54:09	733874	61114b774f9199a8f8f75de2	626826950	1	main_slash	11	main_slash	79	stimuli_distractor_diamondtriangles.svg	stimuli_target_diamondcircles.svg	31	yes	53	1	533
6.6.1	win	2022-11-07	11:41:54	11:54:09	733874	61114b774f9199a8f8f75de2	626826950	1	main_slash	11	advance_on_keypress_SLASH	80	stimuli_distractor_diamondtriangles.svg	stimuli_target_diamondcircles.svg	31	yes	57	0	190
6.6.1	win	2022-11-07	11:41:54	11:54:11	735531	61114b774f9199a8f8f75de2	626826950	1	main_slash	11	main_slash	81	stimuli_distractor_diamondtriangles.svg	stimuli_distractor_trianglediamonds.svg	38	no	53	0	821
6.6.1	win	2022-11-07	11:41:54	11:54:11	735531	61114b774f9199a8f8f75de2	626826950	1	main_slash	11	advance_on_keypress_SLASH	82	stimuli_distractor_diamondtriangles.svg	stimuli_distractor_trianglediamonds.svg	38	no	57	0	210
6.6.1	win	2022-11-07	11:41:54	11:54:14	738377	61114b774f9199a8f8f75de2	626826950	1	main_slash	11	main_slash	83	stimuli_distractor_diamondtriangles.svg	stimuli_distractor_diamondtriangles.svg	40	no	0	1	2000
6.6.1	win	2022-11-07	11:41:54	11:54:14	738377	61114b774f9199a8f8f75de2	626826950	1	main_slash	11	advance_on_keypress_SLASH	84	stimuli_distractor_diamondtriangles.svg	stimuli_distractor_diamondtriangles.svg	40	no	57	0	559
6.6.1	win	2022-11-07	11:41:54	11:54:16	740067	61114b774f9199a8f8f75de2	626826950	1	main_slash	11	main_slash	85	stimuli_distractor_trianglediamonds.svg	stimuli_target_circlediamonds.svg	10	yes	53	1	487
6.6.1	win	2022-11-07	11:41:54	11:54:16	740067	61114b774f9199a8f8f75de2	626826950	1	main_slash	11	advance_on_keypress_SLASH	86	stimuli_distractor_trianglediamonds.svg	stimuli_target_circlediamonds.svg	10	yes	57	0	162
6.6.1	win	2022-11-07	11:41:54	11:54:18	742492	61114b774f9199a8f8f75de2	626826950	1	main_slash	11	main_slash	87	stimuli_distractor_trianglediamonds.svg	stimuli_distractor_diamondtriangles.svg	35	no	53	0	1626
6.6.1	win	2022-11-07	11:41:54	11:54:18	742492	61114b774f9199a8f8f75de2	626826950	1	main_slash	11	advance_on_keypress_SLASH	88	stimuli_distractor_trianglediamonds.svg	stimuli_distractor_diamondtriangles.svg	35	no	57	0	142
6.6.1	win	2022-11-07	11:41:54	11:54:19	743804	61114b774f9199a8f8f75de2	626826950	1	main_slash	11	main_slash	89	stimuli_target_squarediamonds.svg	stimuli_distractor_diamondtriangles.svg	8	yes	53	1	536
6.6.1	win	2022-11-07	11:41:54	11:54:19	743804	61114b774f9199a8f8f75de2	626826950	1	main_slash	11	advance_on_keypress_SLASH	90	stimuli_target_squarediamonds.svg	stimuli_distractor_diamondtriangles.svg	8	yes	57	0	169
6.6.1	win	2022-11-07	11:41:54	11:54:21	745140	61114b774f9199a8f8f75de2	626826950	1	main_slash	11	main_slash	91	stimuli_target_circletriangles.svg	stimuli_distractor_diamondtriangles.svg	5	yes	53	1	521
6.6.1	win	2022-11-07	11:41:54	11:54:21	745140	61114b774f9199a8f8f75de2	626826950	1	main_slash	11	advance_on_keypress_SLASH	92	stimuli_target_circletriangles.svg	stimuli_distractor_diamondtriangles.svg	5	yes	57	0	155
6.6.1	win	2022-11-07	11:41:54	11:54:22	746404	61114b774f9199a8f8f75de2	626826950	1	main_slash	11	main_slash	93	stimuli_target_circlediamonds.svg	stimuli_distractor_trianglediamonds.svg	2	yes	53	1	467
6.6.1	win	2022-11-07	11:41:54	11:54:22	746404	61114b774f9199a8f8f75de2	626826950	1	main_slash	11	advance_on_keypress_SLASH	94	stimuli_target_circlediamonds.svg	stimuli_distractor_trianglediamonds.svg	2	yes	57	0	215
6.6.1	win	2022-11-07	11:41:54	11:54:24	748060	61114b774f9199a8f8f75de2	626826950	1	main_slash	11	main_slash	95	stimuli_distractor_diamondtriangles.svg	stimuli_target_trianglesquares.svg	30	yes	53	1	789
6.6.1	win	2022-11-07	11:41:54	11:54:24	748060	61114b774f9199a8f8f75de2	626826950	1	main_slash	11	advance_on_keypress_SLASH	96	stimuli_distractor_diamondtriangles.svg	stimuli_target_trianglesquares.svg	30	yes	57	0	219
6.6.1	win	2022-11-07	11:41:54	11:54:25	749965	61114b774f9199a8f8f75de2	626826950	1	main_slash	11	main_slash	97	stimuli_distractor_diamondtriangles.svg	stimuli_target_squaretriangles.svg	15	yes	53	1	1041
6.6.1	win	2022-11-07	11:41:54	11:54:25	749965	61114b774f9199a8f8f75de2	626826950	1	main_slash	11	advance_on_keypress_SLASH	98	stimuli_distractor_diamondtriangles.svg	stimuli_target_squaretriangles.svg	15	yes	57	0	182
6.6.1	win	2022-11-07	11:41:54	11:54:27	751269	61114b774f9199a8f8f75de2	626826950	1	main_slash	11	main_slash	99	stimuli_distractor_diamondtriangles.svg	stimuli_target_trianglecircles.svg	29	yes	53	1	477
6.6.1	win	2022-11-07	11:41:54	11:54:27	751269	61114b774f9199a8f8f75de2	626826950	1	main_slash	11	advance_on_keypress_SLASH	100	stimuli_distractor_diamondtriangles.svg	stimuli_target_trianglecircles.svg	29	yes	57	0	177
6.6.1	win	2022-11-07	11:41:54	11:54:28	752533	61114b774f9199a8f8f75de2	626826950	1	main_slash	11	main_slash	101	stimuli_distractor_diamondtriangles.svg	stimuli_target_diamondcircles.svg	31	yes	53	1	457
6.6.1	win	2022-11-07	11:41:54	11:54:28	752533	61114b774f9199a8f8f75de2	626826950	1	main_slash	11	advance_on_keypress_SLASH	102	stimuli_distractor_diamondtriangles.svg	stimuli_target_diamondcircles.svg	31	yes	57	0	181
6.6.1	win	2022-11-07	11:41:54	11:54:31	755361	61114b774f9199a8f8f75de2	626826950	1	main_slash	11	main_slash	103	stimuli_distractor_trianglediamonds.svg	stimuli_distractor_trianglediamonds.svg	34	no	0	1	2000
6.6.1	win	2022-11-07	11:41:54	11:54:31	755361	61114b774f9199a8f8f75de2	626826950	1	main_slash	11	advance_on_keypress_SLASH	104	stimuli_distractor_trianglediamonds.svg	stimuli_distractor_trianglediamonds.svg	34	no	57	0	409
6.6.1	win	2022-11-07	11:41:54	11:54:32	756878	61114b774f9199a8f8f75de2	626826950	1	main_slash	11	main_slash	105	stimuli_distractor_trianglediamonds.svg	stimuli_target_trianglecircles.svg	25	yes	53	1	463
6.6.1	win	2022-11-07	11:41:54	11:54:32	756878	61114b774f9199a8f8f75de2	626826950	1	main_slash	11	advance_on_keypress_SLASH	106	stimuli_distractor_trianglediamonds.svg	stimuli_target_trianglecircles.svg	25	yes	57	0	163
6.6.1	win	2022-11-07	11:41:54	11:54:34	758174	61114b774f9199a8f8f75de2	626826950	1	main_slash	11	main_slash	107	stimuli_target_trianglecircles.svg	stimuli_distractor_diamondtriangles.svg	21	yes	53	1	492
6.6.1	win	2022-11-07	11:41:54	11:54:34	758174	61114b774f9199a8f8f75de2	626826950	1	main_slash	11	advance_on_keypress_SLASH	108	stimuli_target_trianglecircles.svg	stimuli_distractor_diamondtriangles.svg	21	yes	57	0	143
6.6.1	win	2022-11-07	11:41:54	11:54:35	759734	61114b774f9199a8f8f75de2	626826950	1	main_slash	11	main_slash	109	stimuli_distractor_diamondtriangles.svg	stimuli_distractor_diamondtriangles.svg	39	no	53	0	784
6.6.1	win	2022-11-07	11:41:54	11:54:35	759734	61114b774f9199a8f8f75de2	626826950	1	main_slash	11	advance_on_keypress_SLASH	110	stimuli_distractor_diamondtriangles.svg	stimuli_distractor_diamondtriangles.svg	39	no	57	0	143
6.6.1	win	2022-11-07	11:41:54	11:54:38	762518	61114b774f9199a8f8f75de2	626826950	1	main_slash	11	main_slash	111	stimuli_distractor_diamondtriangles.svg	stimuli_target_squarediamonds.svg	16	yes	0	0	2000
6.6.1	win	2022-11-07	11:41:54	11:54:38	762518	61114b774f9199a8f8f75de2	626826950	1	main_slash	11	advance_on_keypress_SLASH	112	stimuli_distractor_diamondtriangles.svg	stimuli_target_squarediamonds.svg	16	yes	57	0	756
6.6.1	win	2022-11-07	11:41:54	11:54:40	764471	61114b774f9199a8f8f75de2	626826950	1	main_slash	11	main_slash	113	stimuli_distractor_diamondtriangles.svg	stimuli_target_diamondsquares.svg	32	yes	53	1	550
6.6.1	win	2022-11-07	11:41:54	11:54:40	764471	61114b774f9199a8f8f75de2	626826950	1	main_slash	11	advance_on_keypress_SLASH	114	stimuli_distractor_diamondtriangles.svg	stimuli_target_diamondsquares.svg	32	yes	57	0	142
6.6.1	win	2022-11-07	11:41:54	11:54:41	765887	61114b774f9199a8f8f75de2	626826950	1	main_slash	11	main_slash	115	stimuli_target_squarediamonds.svg	stimuli_distractor_trianglediamonds.svg	4	yes	53	1	631
6.6.1	win	2022-11-07	11:41:54	11:54:41	765887	61114b774f9199a8f8f75de2	626826950	1	main_slash	11	advance_on_keypress_SLASH	116	stimuli_target_squarediamonds.svg	stimuli_distractor_trianglediamonds.svg	4	yes	57	0	124
6.6.1	win	2022-11-07	11:41:54	11:54:43	767399	61114b774f9199a8f8f75de2	626826950	1	main_slash	11	main_slash	117	stimuli_distractor_trianglediamonds.svg	stimuli_target_diamondsquares.svg	28	yes	53	1	758
6.6.1	win	2022-11-07	11:41:54	11:54:43	767399	61114b774f9199a8f8f75de2	626826950	1	main_slash	11	advance_on_keypress_SLASH	118	stimuli_distractor_trianglediamonds.svg	stimuli_target_diamondsquares.svg	28	yes	57	0	142
6.6.1	win	2022-11-07	11:41:54	11:54:44	768743	61114b774f9199a8f8f75de2	626826950	1	main_slash	11	main_slash	119	stimuli_target_trianglecircles.svg	stimuli_distractor_trianglediamonds.svg	17	yes	53	1	567
6.6.1	win	2022-11-07	11:41:54	11:54:44	768743	61114b774f9199a8f8f75de2	626826950	1	main_slash	11	advance_on_keypress_SLASH	120	stimuli_target_trianglecircles.svg	stimuli_distractor_trianglediamonds.svg	17	yes	57	0	151
6.6.1	win	2022-11-07	11:41:54	11:54:46	770144	61114b774f9199a8f8f75de2	626826950	1	main_slash	11	main_slash	121	stimuli_target_circletriangles.svg	stimuli_distractor_trianglediamonds.svg	1	yes	53	1	599
6.6.1	win	2022-11-07	11:41:54	11:54:46	770144	61114b774f9199a8f8f75de2	626826950	1	main_slash	11	advance_on_keypress_SLASH	122	stimuli_target_circletriangles.svg	stimuli_distractor_trianglediamonds.svg	1	yes	57	0	111
6.6.1	win	2022-11-07	11:41:54	11:54:48	772064	61114b774f9199a8f8f75de2	626826950	1	main_slash	11	main_slash	123	stimuli_target_squaretriangles.svg	stimuli_distractor_trianglediamonds.svg	3	yes	53	1	1169
6.6.1	win	2022-11-07	11:41:54	11:54:48	772064	61114b774f9199a8f8f75de2	626826950	1	main_slash	11	advance_on_keypress_SLASH	124	stimuli_target_squaretriangles.svg	stimuli_distractor_trianglediamonds.svg	3	yes	57	0	120
6.6.1	win	2022-11-07	11:41:54	11:54:49	773520	61114b774f9199a8f8f75de2	626826950	1	main_slash	11	main_slash	125	stimuli_target_circlediamonds.svg	stimuli_distractor_diamondtriangles.svg	6	yes	53	1	690
6.6.1	win	2022-11-07	11:41:54	11:54:49	773520	61114b774f9199a8f8f75de2	626826950	1	main_slash	11	advance_on_keypress_SLASH	126	stimuli_target_circlediamonds.svg	stimuli_distractor_diamondtriangles.svg	6	yes	57	0	164
6.6.1	win	2022-11-07	11:41:54	11:54:52	776332	61114b774f9199a8f8f75de2	626826950	1	main_slash	11	main_slash	127	stimuli_distractor_trianglediamonds.svg	stimuli_target_circletriangles.svg	9	yes	0	0	2000
6.6.1	win	2022-11-07	11:41:54	11:54:52	776332	61114b774f9199a8f8f75de2	626826950	1	main_slash	11	advance_on_keypress_SLASH	128	stimuli_distractor_trianglediamonds.svg	stimuli_target_circletriangles.svg	9	yes	57	0	593
6.6.1	win	2022-11-07	11:41:54	11:54:54	778305	61114b774f9199a8f8f75de2	626826950	1	main_slash	11	main_slash	129	stimuli_distractor_trianglediamonds.svg	stimuli_distractor_diamondtriangles.svg	36	no	53	0	737
6.6.1	win	2022-11-07	11:41:54	11:54:54	778305	61114b774f9199a8f8f75de2	626826950	1	main_slash	11	advance_on_keypress_SLASH	130	stimuli_distractor_trianglediamonds.svg	stimuli_distractor_diamondtriangles.svg	36	no	57	0	145
6.6.1	win	2022-11-07	11:41:54	11:54:56	780090	61114b774f9199a8f8f75de2	626826950	1	main_slash	11	main_slash	131	stimuli_target_diamondcircles.svg	stimuli_distractor_trianglediamonds.svg	19	yes	53	1	1003
6.6.1	win	2022-11-07	11:41:54	11:54:56	780090	61114b774f9199a8f8f75de2	626826950	1	main_slash	11	advance_on_keypress_SLASH	132	stimuli_target_diamondcircles.svg	stimuli_distractor_trianglediamonds.svg	19	yes	57	0	160
6.6.1	win	2022-11-07	11:41:54	11:54:57	781593	61114b774f9199a8f8f75de2	626826950	1	main_slash	11	main_slash	133	stimuli_target_squaretriangles.svg	stimuli_distractor_diamondtriangles.svg	7	yes	53	1	705
6.6.1	win	2022-11-07	11:41:54	11:54:57	781593	61114b774f9199a8f8f75de2	626826950	1	main_slash	11	advance_on_keypress_SLASH	134	stimuli_target_squaretriangles.svg	stimuli_distractor_diamondtriangles.svg	7	yes	57	0	155
6.6.1	win	2022-11-07	11:41:54	11:54:59	783442	61114b774f9199a8f8f75de2	626826950	1	main_slash	11	main_slash	135	stimuli_distractor_trianglediamonds.svg	stimuli_distractor_trianglediamonds.svg	33	no	53	0	1051
6.6.1	win	2022-11-07	11:41:54	11:54:59	783442	61114b774f9199a8f8f75de2	626826950	1	main_slash	11	advance_on_keypress_SLASH	136	stimuli_distractor_trianglediamonds.svg	stimuli_distractor_trianglediamonds.svg	33	no	57	0	135
6.6.1	win	2022-11-07	11:41:54	11:55:00	784858	61114b774f9199a8f8f75de2	626826950	1	main_slash	11	main_slash	137	stimuli_distractor_trianglediamonds.svg	stimuli_target_diamondcircles.svg	27	yes	53	1	633
6.6.1	win	2022-11-07	11:41:54	11:55:00	784858	61114b774f9199a8f8f75de2	626826950	1	main_slash	11	advance_on_keypress_SLASH	138	stimuli_distractor_trianglediamonds.svg	stimuli_target_diamondcircles.svg	27	yes	57	0	118
6.6.1	win	2022-11-07	11:41:54	11:55:02	786330	61114b774f9199a8f8f75de2	626826950	1	main_slash	11	main_slash	139	stimuli_target_diamondsquares.svg	stimuli_distractor_diamondtriangles.svg	24	yes	53	1	704
6.6.1	win	2022-11-07	11:41:54	11:55:02	786330	61114b774f9199a8f8f75de2	626826950	1	main_slash	11	advance_on_keypress_SLASH	140	stimuli_target_diamondsquares.svg	stimuli_distractor_diamondtriangles.svg	24	yes	57	0	162
6.6.1	win	2022-11-07	11:41:54	11:55:03	787674	61114b774f9199a8f8f75de2	626826950	1	main_slash	11	main_slash	141	stimuli_distractor_diamondtriangles.svg	stimuli_target_circlediamonds.svg	14	yes	53	1	546
6.6.1	win	2022-11-07	11:41:54	11:55:03	787674	61114b774f9199a8f8f75de2	626826950	1	main_slash	11	advance_on_keypress_SLASH	142	stimuli_distractor_diamondtriangles.svg	stimuli_target_circlediamonds.svg	14	yes	57	0	139
6.6.1	win	2022-11-07	11:41:54	11:55:05	789178	61114b774f9199a8f8f75de2	626826950	1	main_slash	11	main_slash	143	stimuli_distractor_trianglediamonds.svg	stimuli_target_trianglesquares.svg	26	yes	53	1	732
6.6.1	win	2022-11-07	11:41:54	11:55:05	789178	61114b774f9199a8f8f75de2	626826950	1	main_slash	11	advance_on_keypress_SLASH	144	stimuli_distractor_trianglediamonds.svg	stimuli_target_trianglesquares.svg	26	yes	57	0	173
6.6.1	win	2022-11-07	11:41:54	11:55:06	790555	61114b774f9199a8f8f75de2	626826950	1	main_slash	11	main_slash	145	stimuli_target_diamondcircles.svg	stimuli_distractor_diamondtriangles.svg	23	yes	53	1	557
6.6.1	win	2022-11-07	11:41:54	11:55:06	790555	61114b774f9199a8f8f75de2	626826950	1	main_slash	11	advance_on_keypress_SLASH	146	stimuli_target_diamondcircles.svg	stimuli_distractor_diamondtriangles.svg	23	yes	57	0	149
6.6.1	win	2022-11-07	11:41:54	11:55:07	791843	61114b774f9199a8f8f75de2	626826950	1	main_slash	11	main_slash	147	stimuli_distractor_trianglediamonds.svg	stimuli_target_squarediamonds.svg	12	yes	53	1	494
6.6.1	win	2022-11-07	11:41:54	11:55:07	791843	61114b774f9199a8f8f75de2	626826950	1	main_slash	11	advance_on_keypress_SLASH	148	stimuli_distractor_trianglediamonds.svg	stimuli_target_squarediamonds.svg	12	yes	57	0	176
6.6.1	win	2022-11-07	11:41:54	11:55:09	793251	61114b774f9199a8f8f75de2	626826950	1	main_slash	11	main_slash	149	stimuli_distractor_trianglediamonds.svg	stimuli_target_squaretriangles.svg	11	yes	53	1	601
6.6.1	win	2022-11-07	11:41:54	11:55:09	793251	61114b774f9199a8f8f75de2	626826950	1	main_slash	11	advance_on_keypress_SLASH	150	stimuli_distractor_trianglediamonds.svg	stimuli_target_squaretriangles.svg	11	yes	57	0	191
6.6.1	win	2022-11-07	11:41:54	11:55:10	794811	61114b774f9199a8f8f75de2	626826950	1	main_slash	11	main_slash	151	stimuli_distractor_diamondtriangles.svg	stimuli_distractor_trianglediamonds.svg	37	no	53	0	726
6.6.1	win	2022-11-07	11:41:54	11:55:10	794811	61114b774f9199a8f8f75de2	626826950	1	main_slash	11	advance_on_keypress_SLASH	152	stimuli_distractor_diamondtriangles.svg	stimuli_distractor_trianglediamonds.svg	37	no	57	0	160
6.6.1	win	2022-11-07	11:41:54	11:55:12	796396	61114b774f9199a8f8f75de2	626826950	1	main_slash	11	main_slash	153	stimuli_target_trianglesquares.svg	stimuli_distractor_diamondtriangles.svg	22	yes	53	1	792
6.6.1	win	2022-11-07	11:41:54	11:55:12	796396	61114b774f9199a8f8f75de2	626826950	1	main_slash	11	advance_on_keypress_SLASH	154	stimuli_target_trianglesquares.svg	stimuli_distractor_diamondtriangles.svg	22	yes	57	0	103
6.6.1	win	2022-11-07	11:41:54	11:55:13	797940	61114b774f9199a8f8f75de2	626826950	1	main_slash	11	main_slash	155	stimuli_distractor_diamondtriangles.svg	stimuli_target_circletriangles.svg	13	yes	53	1	802
6.6.1	win	2022-11-07	11:41:54	11:55:13	797940	61114b774f9199a8f8f75de2	626826950	1	main_slash	11	advance_on_keypress_SLASH	156	stimuli_distractor_diamondtriangles.svg	stimuli_target_circletriangles.svg	13	yes	57	0	168
6.6.1	win	2022-11-07	11:41:54	11:55:15	799716	61114b774f9199a8f8f75de2	626826950	1	main_slash	11	main_slash	157	stimuli_target_diamondsquares.svg	stimuli_distractor_trianglediamonds.svg	20	yes	53	1	960
6.6.1	win	2022-11-07	11:41:54	11:55:15	799716	61114b774f9199a8f8f75de2	626826950	1	main_slash	11	advance_on_keypress_SLASH	158	stimuli_target_diamondsquares.svg	stimuli_distractor_trianglediamonds.svg	20	yes	57	0	128
6.6.1	win	2022-11-07	11:41:54	11:55:17	801052	61114b774f9199a8f8f75de2	626826950	1	main_slash	11	main_slash	159	stimuli_target_trianglesquares.svg	stimuli_distractor_trianglediamonds.svg	18	yes	53	1	578
6.6.1	win	2022-11-07	11:41:54	11:55:17	801052	61114b774f9199a8f8f75de2	626826950	1	main_slash	11	advance_on_keypress_SLASH	160	stimuli_target_trianglesquares.svg	stimuli_distractor_trianglediamonds.svg	18	yes	57	0	161