subject	time_elapsed_ms	blocknum	block_type	block_response	trialnum	target	level	field	target_present	response	correct	rt
588093c6704f1100014a3d01	2596356	9.5	practice	z	1	rectangle	local	RVF	yes	present	1	1558
588093c6704f1100014a3d01	2600057	9.5	practice	z	2	square	global	LVF	yes	present	1	589
588093c6704f1100014a3d01	2602993	9.5	practice	z	3	square	global	RVF	yes	present	1	608
588093c6704f1100014a3d01	2605601	9.5	practice	z	4	rectangle	global	RVF	yes	present	1	614
588093c6704f1100014a3d01	2609240	9.5	practice	z	5	rectangle	global	RVF	yes	present	1	553
588093c6704f1100014a3d01	2613190	9.5	practice	z	6	absent	absent	absent	no	absent	1	2000
588093c6704f1100014a3d01	2617390	9.5	practice	z	7	absent	absent	absent	no	absent	1	2000
588093c6704f1100014a3d01	2620508	9.5	practice	z	8	rectangle	global	LVF	yes	present	1	665
588093c6704f1100014a3d01	2623998	9.5	practice	z	9	rectangle	local	RVF	yes	present	1	956
588093c6704f1100014a3d01	2628662	9.5	practice	z	10	absent	absent	absent	no	absent	1	2000
588093c6704f1100014a3d01	2632111	9.5	practice	z	11	square	local	LVF	yes	present	1	1046
588093c6704f1100014a3d01	2635185	9.5	practice	z	12	rectangle	local	RVF	yes	present	1	987
588093c6704f1100014a3d01	2638268	9.5	practice	z	13	square	local	LVF	yes	present	1	1004
588093c6704f1100014a3d01	2640903	9.5	practice	z	14	rectangle	global	LVF	yes	present	1	670
588093c6704f1100014a3d01	2643600	9.5	practice	z	15	square	global	LVF	yes	present	1	766
588093c6704f1100014a3d01	2647486	9.5	practice	z	16	absent	absent	absent	no	absent	1	2000
588093c6704f1100014a3d01	2912271	10.5	main	z	1	rectangle	local	LVF	yes	present	1	1469
588093c6704f1100014a3d01	2915872	10.5	main	z	2	square	local	LVF	yes	present	1	1186
588093c6704f1100014a3d01	2919588	10.5	main	z	3	absent	absent	absent	no	absent	1	2000
588093c6704f1100014a3d01	2922539	10.5	main	z	4	rectangle	global	LVF	yes	absent	0	2000
588093c6704f1100014a3d01	2924228	10.5	main	z	5	square	global	RVF	yes	present	1	655
588093c6704f1100014a3d01	2927624	10.5	main	z	6	absent	absent	absent	no	absent	1	2000
588093c6704f1100014a3d01	2929700	10.5	main	z	7	rectangle	local	RVF	yes	present	1	925
588093c6704f1100014a3d01	2931718	10.5	main	z	8	square	global	LVF	yes	present	1	659
588093c6704f1100014a3d01	2933981	10.5	main	z	9	rectangle	global	RVF	yes	present	1	939
588093c6704f1100014a3d01	2936525	10.5	main	z	10	square	local	RVF	yes	present	1	948
588093c6704f1100014a3d01	2939696	10.5	main	z	11	absent	absent	absent	no	absent	1	2000
588093c6704f1100014a3d01	2942963	10.5	main	z	12	absent	absent	absent	no	absent	1	2000
588093c6704f1100014a3d01	2944656	10.5	main	z	13	square	global	RVF	yes	present	1	727
588093c6704f1100014a3d01	2946981	10.5	main	z	14	rectangle	local	RVF	yes	present	1	1115
588093c6704f1100014a3d01	2948925	10.5	main	z	15	square	global	LVF	yes	present	1	759
588093c6704f1100014a3d01	2952084	10.5	main	z	16	rectangle	local	LVF	yes	absent	0	2000
588093c6704f1100014a3d01	2954165	10.5	main	z	17	square	global	LVF	yes	present	1	814
588093c6704f1100014a3d01	2956008	10.5	main	z	18	rectangle	global	LVF	yes	present	1	690
588093c6704f1100014a3d01	2957946	10.5	main	z	19	square	global	RVF	yes	present	1	794
588093c6704f1100014a3d01	2961221	10.5	main	z	20	absent	absent	absent	no	absent	1	2000
588093c6704f1100014a3d01	2963375	10.5	main	z	21	rectangle	local	LVF	yes	present	1	1220
588093c6704f1100014a3d01	2965359	10.5	main	z	22	rectangle	global	RVF	yes	present	1	853
588093c6704f1100014a3d01	2968065	10.5	main	z	23	square	local	RVF	yes	present	1	1276
588093c6704f1100014a3d01	2971207	10.5	main	z	24	rectangle	global	RVF	yes	absent	0	2000
588093c6704f1100014a3d01	2973729	10.5	main	z	25	absent	absent	absent	no	present	0	1137
588093c6704f1100014a3d01	2975405	10.5	main	z	26	rectangle	global	LVF	yes	present	1	614
588093c6704f1100014a3d01	2977704	10.5	main	z	27	rectangle	local	RVF	yes	present	1	1161
588093c6704f1100014a3d01	2979656	10.5	main	z	28	rectangle	global	RVF	yes	present	1	912
588093c6704f1100014a3d01	2981486	10.5	main	z	29	rectangle	global	LVF	yes	present	1	791
588093c6704f1100014a3d01	2983565	10.5	main	z	30	square	local	LVF	yes	present	1	1002
588093c6704f1100014a3d01	2986597	10.5	main	z	31	square	local	RVF	yes	absent	0	2000
588093c6704f1100014a3d01	2988651	10.5	main	z	32	square	global	RVF	yes	present	1	786
588093c6704f1100014a3d01	2990322	10.5	main	z	33	square	global	LVF	yes	present	1	608
588093c6704f1100014a3d01	2993417	10.5	main	z	34	absent	absent	absent	no	absent	1	2000
588093c6704f1100014a3d01	2996501	10.5	main	z	35	rectangle	local	RVF	yes	absent	0	2000
588093c6704f1100014a3d01	2999485	10.5	main	z	36	rectangle	local	LVF	yes	absent	0	2000
588093c6704f1100014a3d01	3002654	10.5	main	z	37	absent	absent	absent	no	absent	1	2000
588093c6704f1100014a3d01	3004688	10.5	main	z	38	square	local	LVF	yes	present	1	1116
588093c6704f1100014a3d01	3006536	10.5	main	z	39	square	local	RVF	yes	present	1	764
588093c6704f1100014a3d01	3008803	10.5	main	z	40	square	local	LVF	yes	present	1	1131
588093c6704f1100014a3d01	3010992	10.5	main	z	41	square	global	LVF	yes	present	1	1036
588093c6704f1100014a3d01	3013295	10.5	main	z	42	rectangle	global	RVF	yes	present	1	1105
588093c6704f1100014a3d01	3016292	10.5	main	z	43	absent	absent	absent	no	absent	1	2000
588093c6704f1100014a3d01	3019826	10.5	main	z	44	square	local	LVF	yes	absent	0	2000
588093c6704f1100014a3d01	3022652	10.5	main	z	45	rectangle	local	RVF	yes	present	1	1575
588093c6704f1100014a3d01	3025812	10.5	main	z	46	absent	absent	absent	no	absent	1	2000
588093c6704f1100014a3d01	3030097	10.5	main	z	47	absent	absent	absent	no	absent	1	2000
588093c6704f1100014a3d01	3031960	10.5	main	z	48	square	global	LVF	yes	present	1	663
588093c6704f1100014a3d01	3034278	10.5	main	z	49	square	local	LVF	yes	present	1	1130
588093c6704f1100014a3d01	3037434	10.5	main	z	50	absent	absent	absent	no	absent	1	2000
588093c6704f1100014a3d01	3039623	10.5	main	z	51	square	local	RVF	yes	present	1	839
588093c6704f1100014a3d01	3041674	10.5	main	z	52	square	local	LVF	yes	present	1	989
588093c6704f1100014a3d01	3044736	10.5	main	z	53	absent	absent	absent	no	absent	1	2000
588093c6704f1100014a3d01	3047036	10.5	main	z	54	rectangle	local	LVF	yes	present	1	1066
588093c6704f1100014a3d01	3048894	10.5	main	z	55	square	global	RVF	yes	present	1	740
588093c6704f1100014a3d01	3050981	10.5	main	z	56	rectangle	global	RVF	yes	present	1	893
588093c6704f1100014a3d01	3053430	10.5	main	z	57	square	global	RVF	yes	present	1	1341
588093c6704f1100014a3d01	3056408	10.5	main	z	58	absent	absent	absent	no	absent	1	2000
588093c6704f1100014a3d01	3058578	10.5	main	z	59	square	local	RVF	yes	present	1	853
588093c6704f1100014a3d01	3060769	10.5	main	z	60	rectangle	local	RVF	yes	present	1	995
588093c6704f1100014a3d01	3062668	10.5	main	z	61	rectangle	local	LVF	yes	present	1	842
588093c6704f1100014a3d01	3065005	10.5	main	z	62	rectangle	global	LVF	yes	present	1	1280
588093c6704f1100014a3d01	3068012	10.5	main	z	63	rectangle	global	RVF	yes	absent	0	2000
588093c6704f1100014a3d01	3069965	10.5	main	z	64	square	global	LVF	yes	present	1	669
588093c6704f1100014a3d01	3071875	10.5	main	z	65	square	global	LVF	yes	present	1	829
588093c6704f1100014a3d01	3073903	10.5	main	z	66	rectangle	local	LVF	yes	present	1	990
588093c6704f1100014a3d01	3076965	10.5	main	z	67	rectangle	global	RVF	yes	absent	0	2000
588093c6704f1100014a3d01	3079340	10.5	main	z	68	rectangle	local	RVF	yes	present	1	1241
588093c6704f1100014a3d01	3081278	10.5	main	z	69	square	local	RVF	yes	present	1	945
588093c6704f1100014a3d01	3084268	10.5	main	z	70	absent	absent	absent	no	absent	1	2000
588093c6704f1100014a3d01	3086141	10.5	main	z	71	square	global	RVF	yes	present	1	690
588093c6704f1100014a3d01	3088018	10.5	main	z	72	rectangle	global	LVF	yes	present	1	832
588093c6704f1100014a3d01	3089871	10.5	main	z	73	rectangle	global	LVF	yes	present	1	834
588093c6704f1100014a3d01	3091998	10.5	main	z	74	absent	absent	absent	no	present	0	1095
588093c6704f1100014a3d01	3093771	10.5	main	z	75	rectangle	local	RVF	yes	present	1	799
588093c6704f1100014a3d01	3095525	10.5	main	z	76	square	local	RVF	yes	present	1	719
588093c6704f1100014a3d01	3097412	10.5	main	z	77	rectangle	global	LVF	yes	present	1	873
588093c6704f1100014a3d01	3100407	10.5	main	z	78	square	local	LVF	yes	absent	0	2000
588093c6704f1100014a3d01	3102745	10.5	main	z	79	square	global	RVF	yes	present	1	1453
588093c6704f1100014a3d01	3105676	10.5	main	z	80	rectangle	local	LVF	yes	absent	0	2000
588093c6704f1100014a3d01	3132096	11.5	practice	slash	1	square	local	LVF	yes	present	1	890
588093c6704f1100014a3d01	3134784	11.5	practice	slash	2	rectangle	local	RVF	yes	present	1	661
588093c6704f1100014a3d01	3138792	11.5	practice	slash	3	rectangle	global	RVF	yes	absent	0	2000
588093c6704f1100014a3d01	3142053	11.5	practice	slash	4	rectangle	global	RVF	yes	present	1	844
588093c6704f1100014a3d01	3144798	11.5	practice	slash	5	rectangle	local	RVF	yes	present	1	756
588093c6704f1100014a3d01	3149029	11.5	practice	slash	6	absent	absent	absent	no	absent	1	2000
588093c6704f1100014a3d01	3152027	11.5	practice	slash	7	rectangle	global	LVF	yes	present	1	747
588093c6704f1100014a3d01	3155931	11.5	practice	slash	8	absent	absent	absent	no	absent	1	2000
588093c6704f1100014a3d01	3158836	11.5	practice	slash	9	square	global	LVF	yes	present	1	722
588093c6704f1100014a3d01	3162833	11.5	practice	slash	10	absent	absent	absent	no	absent	1	2000
588093c6704f1100014a3d01	3165695	11.5	practice	slash	11	square	global	LVF	yes	present	1	678
588093c6704f1100014a3d01	3168856	11.5	practice	slash	12	square	local	LVF	yes	present	1	1137
588093c6704f1100014a3d01	3171756	11.5	practice	slash	13	rectangle	global	LVF	yes	present	1	969
588093c6704f1100014a3d01	3174889	11.5	practice	slash	14	rectangle	local	RVF	yes	present	1	1000
588093c6704f1100014a3d01	3179023	11.5	practice	slash	15	absent	absent	absent	no	absent	1	2000
588093c6704f1100014a3d01	3182317	11.5	practice	slash	16	square	global	RVF	yes	present	1	1110
588093c6704f1100014a3d01	3512950	12.5	main	slash	1	absent	absent	absent	no	absent	1	2000
588093c6704f1100014a3d01	3516050	12.5	main	slash	2	absent	absent	absent	no	absent	1	2000
588093c6704f1100014a3d01	3517810	12.5	main	slash	3	square	local	LVF	yes	present	1	810
588093c6704f1100014a3d01	3520750	12.5	main	slash	4	square	local	RVF	yes	present	1	1064
588093c6704f1100014a3d01	3523024	12.5	main	slash	5	square	global	LVF	yes	present	1	987
588093c6704f1100014a3d01	3524865	12.5	main	slash	6	rectangle	global	RVF	yes	present	1	745
588093c6704f1100014a3d01	3527041	12.5	main	slash	7	absent	absent	absent	no	present	0	1068
588093c6704f1100014a3d01	3528936	12.5	main	slash	8	square	global	LVF	yes	present	1	765
588093c6704f1100014a3d01	3530819	12.5	main	slash	9	rectangle	global	LVF	yes	present	1	780
588093c6704f1100014a3d01	3532847	12.5	main	slash	10	square	global	RVF	yes	present	1	907
588093c6704f1100014a3d01	3535958	12.5	main	slash	11	rectangle	local	LVF	yes	absent	0	2000
588093c6704f1100014a3d01	3538342	12.5	main	slash	12	rectangle	local	LVF	yes	present	1	1266
588093c6704f1100014a3d01	3540334	12.5	main	slash	13	rectangle	local	RVF	yes	present	1	925
588093c6704f1100014a3d01	3542240	12.5	main	slash	14	square	global	LVF	yes	present	1	830
588093c6704f1100014a3d01	3545295	12.5	main	slash	15	rectangle	local	RVF	yes	absent	0	2000
588093c6704f1100014a3d01	3547845	12.5	main	slash	16	absent	absent	absent	no	present	0	1065
588093c6704f1100014a3d01	3549737	12.5	main	slash	17	square	global	RVF	yes	present	1	874
588093c6704f1100014a3d01	3551500	12.5	main	slash	18	square	global	RVF	yes	present	1	753
588093c6704f1100014a3d01	3553578	12.5	main	slash	19	square	local	LVF	yes	present	1	1013
588093c6704f1100014a3d01	3555587	12.5	main	slash	20	square	local	RVF	yes	present	1	970
588093c6704f1100014a3d01	3557789	12.5	main	slash	21	rectangle	global	RVF	yes	present	1	1072
588093c6704f1100014a3d01	3559676	12.5	main	slash	22	square	global	LVF	yes	present	1	809
588093c6704f1100014a3d01	3562259	12.5	main	slash	23	absent	absent	absent	no	present	0	1425
588093c6704f1100014a3d01	3564413	12.5	main	slash	24	square	local	RVF	yes	present	1	1010
588093c6704f1100014a3d01	3567520	12.5	main	slash	25	absent	absent	absent	no	absent	1	2000
588093c6704f1100014a3d01	3569550	12.5	main	slash	26	rectangle	global	LVF	yes	present	1	896
588093c6704f1100014a3d01	3571663	12.5	main	slash	27	square	local	RVF	yes	present	1	1058
588093c6704f1100014a3d01	3574272	12.5	main	slash	28	square	local	LVF	yes	present	1	1467
588093c6704f1100014a3d01	3576140	12.5	main	slash	29	square	local	LVF	yes	present	1	816
588093c6704f1100014a3d01	3578188	12.5	main	slash	30	rectangle	local	RVF	yes	present	1	930
588093c6704f1100014a3d01	3581107	12.5	main	slash	31	absent	absent	absent	no	present	0	1798
588093c6704f1100014a3d01	3584143	12.5	main	slash	32	rectangle	global	RVF	yes	absent	0	2000
588093c6704f1100014a3d01	3586120	12.5	main	slash	33	rectangle	local	RVF	yes	present	1	743
588093c6704f1100014a3d01	3588400	12.5	main	slash	34	square	global	RVF	yes	present	1	1156
588093c6704f1100014a3d01	3590617	12.5	main	slash	35	rectangle	local	LVF	yes	present	1	1104
588093c6704f1100014a3d01	3593188	12.5	main	slash	36	absent	absent	absent	no	present	0	1475
588093c6704f1100014a3d01	3595176	12.5	main	slash	37	rectangle	global	RVF	yes	present	1	946
588093c6704f1100014a3d01	3597024	12.5	main	slash	38	rectangle	global	LVF	yes	present	1	810
588093c6704f1100014a3d01	3598868	12.5	main	slash	39	rectangle	global	LVF	yes	present	1	769
588093c6704f1100014a3d01	3600895	12.5	main	slash	40	rectangle	local	LVF	yes	present	1	895
588093c6704f1100014a3d01	3602878	12.5	main	slash	41	square	local	LVF	yes	present	1	877
588093c6704f1100014a3d01	3606001	12.5	main	slash	42	square	global	LVF	yes	absent	0	2000
588093c6704f1100014a3d01	3608225	12.5	main	slash	43	square	local	RVF	yes	present	1	706
588093c6704f1100014a3d01	3610127	12.5	main	slash	44	square	global	LVF	yes	present	1	774
588093c6704f1100014a3d01	3613271	12.5	main	slash	45	absent	absent	absent	no	absent	1	2000
588093c6704f1100014a3d01	3615880	12.5	main	slash	46	square	local	LVF	yes	present	1	1575
588093c6704f1100014a3d01	3618957	12.5	main	slash	47	absent	absent	absent	no	absent	1	2000
588093c6704f1100014a3d01	3621153	12.5	main	slash	48	square	local	LVF	yes	present	1	963
588093c6704f1100014a3d01	3623128	12.5	main	slash	49	square	local	RVF	yes	present	1	886
588093c6704f1100014a3d01	3625446	12.5	main	slash	50	square	global	RVF	yes	present	1	1204
588093c6704f1100014a3d01	3627583	12.5	main	slash	51	rectangle	global	LVF	yes	present	1	973
588093c6704f1100014a3d01	3629649	12.5	main	slash	52	square	local	LVF	yes	present	1	957
588093c6704f1100014a3d01	3631753	12.5	main	slash	53	rectangle	local	LVF	yes	present	1	992
588093c6704f1100014a3d01	3634879	12.5	main	slash	54	absent	absent	absent	no	absent	1	2000
588093c6704f1100014a3d01	3636837	12.5	main	slash	55	rectangle	local	LVF	yes	present	1	890
588093c6704f1100014a3d01	3638835	12.5	main	slash	56	rectangle	global	LVF	yes	present	1	954
588093c6704f1100014a3d01	3640805	12.5	main	slash	57	rectangle	local	LVF	yes	present	1	874
588093c6704f1100014a3d01	3642974	12.5	main	slash	58	absent	absent	absent	no	present	0	1092
588093c6704f1100014a3d01	3644896	12.5	main	slash	59	square	global	RVF	yes	present	1	897
588093c6704f1100014a3d01	3647918	12.5	main	slash	60	absent	absent	absent	no	absent	1	2000
588093c6704f1100014a3d01	3649863	12.5	main	slash	61	rectangle	local	RVF	yes	present	1	695
588093c6704f1100014a3d01	3651761	12.5	main	slash	62	square	local	RVF	yes	present	1	809
588093c6704f1100014a3d01	3653734	12.5	main	slash	63	rectangle	global	RVF	yes	present	1	898
588093c6704f1100014a3d01	3655661	12.5	main	slash	64	square	global	RVF	yes	present	1	874
588093c6704f1100014a3d01	3657805	12.5	main	slash	65	rectangle	local	RVF	yes	present	1	866
588093c6704f1100014a3d01	3659844	12.5	main	slash	66	rectangle	global	LVF	yes	present	1	904
588093c6704f1100014a3d01	3661992	12.5	main	slash	67	rectangle	global	RVF	yes	present	1	1002
588093c6704f1100014a3d01	3665175	12.5	main	slash	68	absent	absent	absent	no	absent	1	2000
588093c6704f1100014a3d01	3667137	12.5	main	slash	69	rectangle	global	RVF	yes	present	1	879
588093c6704f1100014a3d01	3669590	12.5	main	slash	70	rectangle	local	LVF	yes	present	1	1215
588093c6704f1100014a3d01	3671783	12.5	main	slash	71	rectangle	local	RVF	yes	present	1	1023
588093c6704f1100014a3d01	3674698	12.5	main	slash	72	absent	absent	absent	no	present	0	1721
588093c6704f1100014a3d01	3676911	12.5	main	slash	73	square	global	RVF	yes	present	1	1115
588093c6704f1100014a3d01	3678994	12.5	main	slash	74	rectangle	global	RVF	yes	present	1	914
588093c6704f1100014a3d01	3681327	12.5	main	slash	75	square	global	LVF	yes	present	1	897
588093c6704f1100014a3d01	3683389	12.5	main	slash	76	square	global	LVF	yes	present	1	958
588093c6704f1100014a3d01	3685657	12.5	main	slash	77	rectangle	local	RVF	yes	present	1	1109
588093c6704f1100014a3d01	3687680	12.5	main	slash	78	square	local	RVF	yes	present	1	864
588093c6704f1100014a3d01	3689763	12.5	main	slash	79	rectangle	global	LVF	yes	present	1	863
588093c6704f1100014a3d01	3693485	12.5	main	slash	80	absent	absent	absent	no	absent	1	2000
