subject	time_elapsed_ms	blocknum	block_type	block_response	trialnum	target	level	field	target_present	response	correct	rt
5cb489ff0cd1ed0017465d19	665171	9.5	practice	z	1	square	local	LVF	yes	present	1	1229
5cb489ff0cd1ed0017465d19	670947	9.5	practice	z	2	square	global	LVF	yes	present	1	722
5cb489ff0cd1ed0017465d19	679223	9.5	practice	z	3	rectangle	local	RVF	yes	absent	0	2000
5cb489ff0cd1ed0017465d19	682507	9.5	practice	z	4	absent	absent	absent	no	present	0	952
5cb489ff0cd1ed0017465d19	686680	9.5	practice	z	5	rectangle	global	LVF	yes	present	1	936
5cb489ff0cd1ed0017465d19	692318	9.5	practice	z	6	rectangle	global	RVF	yes	present	1	760
5cb489ff0cd1ed0017465d19	697323	9.5	practice	z	7	square	local	LVF	yes	absent	0	2000
5cb489ff0cd1ed0017465d19	701670	9.5	practice	z	8	square	global	LVF	yes	present	1	842
5cb489ff0cd1ed0017465d19	705639	9.5	practice	z	9	rectangle	local	RVF	yes	present	1	1244
5cb489ff0cd1ed0017465d19	709337	9.5	practice	z	10	square	global	RVF	yes	present	1	1413
5cb489ff0cd1ed0017465d19	712759	9.5	practice	z	11	rectangle	local	RVF	yes	present	1	998
5cb489ff0cd1ed0017465d19	717143	9.5	practice	z	12	absent	absent	absent	no	absent	1	2000
5cb489ff0cd1ed0017465d19	720125	9.5	practice	z	13	rectangle	global	RVF	yes	present	1	831
5cb489ff0cd1ed0017465d19	724899	9.5	practice	z	14	absent	absent	absent	no	absent	1	2000
5cb489ff0cd1ed0017465d19	729328	9.5	practice	z	15	absent	absent	absent	no	absent	1	2000
5cb489ff0cd1ed0017465d19	732931	9.5	practice	z	16	rectangle	global	LVF	yes	present	1	1103
5cb489ff0cd1ed0017465d19	744403	10.5	main	z	1	square	global	RVF	yes	present	1	781
5cb489ff0cd1ed0017465d19	748731	10.5	main	z	2	rectangle	global	RVF	yes	present	1	809
5cb489ff0cd1ed0017465d19	751621	10.5	main	z	3	rectangle	global	LVF	yes	present	1	612
5cb489ff0cd1ed0017465d19	755220	10.5	main	z	4	square	local	LVF	yes	absent	0	2000
5cb489ff0cd1ed0017465d19	757236	10.5	main	z	5	rectangle	global	RVF	yes	present	1	900
5cb489ff0cd1ed0017465d19	759922	10.5	main	z	6	rectangle	global	LVF	yes	present	1	1035
5cb489ff0cd1ed0017465d19	762677	10.5	main	z	7	square	local	LVF	yes	present	1	1320
5cb489ff0cd1ed0017465d19	765385	10.5	main	z	8	rectangle	global	RVF	yes	present	1	1398
5cb489ff0cd1ed0017465d19	768758	10.5	main	z	9	absent	absent	absent	no	absent	1	2000
5cb489ff0cd1ed0017465d19	771416	10.5	main	z	10	rectangle	local	RVF	yes	present	1	1345
5cb489ff0cd1ed0017465d19	774843	10.5	main	z	11	rectangle	local	LVF	yes	absent	0	2000
5cb489ff0cd1ed0017465d19	777303	10.5	main	z	12	square	global	RVF	yes	present	1	1282
5cb489ff0cd1ed0017465d19	780757	10.5	main	z	13	absent	absent	absent	no	absent	1	2000
5cb489ff0cd1ed0017465d19	783123	10.5	main	z	14	rectangle	local	RVF	yes	present	1	1085
5cb489ff0cd1ed0017465d19	785854	10.5	main	z	15	square	global	RVF	yes	present	1	1347
5cb489ff0cd1ed0017465d19	789141	10.5	main	z	16	rectangle	local	LVF	yes	absent	0	2000
5cb489ff0cd1ed0017465d19	791594	10.5	main	z	17	square	local	LVF	yes	present	1	1088
5cb489ff0cd1ed0017465d19	793797	10.5	main	z	18	square	local	RVF	yes	present	1	874
5cb489ff0cd1ed0017465d19	795988	10.5	main	z	19	rectangle	local	LVF	yes	present	1	950
5cb489ff0cd1ed0017465d19	798210	10.5	main	z	20	square	local	RVF	yes	present	1	1054
5cb489ff0cd1ed0017465d19	800351	10.5	main	z	21	square	global	LVF	yes	present	1	1012
5cb489ff0cd1ed0017465d19	802655	10.5	main	z	22	rectangle	global	RVF	yes	present	1	998
5cb489ff0cd1ed0017465d19	805807	10.5	main	z	23	absent	absent	absent	no	absent	1	2000
5cb489ff0cd1ed0017465d19	808011	10.5	main	z	24	rectangle	local	LVF	yes	present	1	923
5cb489ff0cd1ed0017465d19	810405	10.5	main	z	25	square	global	RVF	yes	present	1	1049
5cb489ff0cd1ed0017465d19	813776	10.5	main	z	26	absent	absent	absent	no	absent	1	2000
5cb489ff0cd1ed0017465d19	817809	10.5	main	z	27	rectangle	local	RVF	yes	present	1	1017
5cb489ff0cd1ed0017465d19	821143	10.5	main	z	28	absent	absent	absent	no	absent	1	2000
5cb489ff0cd1ed0017465d19	824306	10.5	main	z	29	square	local	RVF	yes	present	1	847
5cb489ff0cd1ed0017465d19	826618	10.5	main	z	30	rectangle	local	RVF	yes	present	1	1044
5cb489ff0cd1ed0017465d19	828956	10.5	main	z	31	square	global	LVF	yes	present	1	1233
5cb489ff0cd1ed0017465d19	832160	10.5	main	z	32	square	local	LVF	yes	absent	0	2000
5cb489ff0cd1ed0017465d19	834405	10.5	main	z	33	rectangle	global	LVF	yes	present	1	1032
5cb489ff0cd1ed0017465d19	836863	10.5	main	z	34	square	local	RVF	yes	present	1	1105
5cb489ff0cd1ed0017465d19	839346	10.5	main	z	35	absent	absent	absent	no	present	0	1025
5cb489ff0cd1ed0017465d19	841471	10.5	main	z	36	square	global	LVF	yes	present	1	1044
5cb489ff0cd1ed0017465d19	844061	10.5	main	z	37	rectangle	global	LVF	yes	present	1	1319
5cb489ff0cd1ed0017465d19	847343	10.5	main	z	38	absent	absent	absent	no	absent	1	2000
5cb489ff0cd1ed0017465d19	849370	10.5	main	z	39	square	global	LVF	yes	present	1	845
5cb489ff0cd1ed0017465d19	851992	10.5	main	z	40	absent	absent	absent	no	present	0	1248
5cb489ff0cd1ed0017465d19	854065	10.5	main	z	41	rectangle	global	LVF	yes	present	1	942
5cb489ff0cd1ed0017465d19	856207	10.5	main	z	42	rectangle	global	LVF	yes	present	1	1017
5cb489ff0cd1ed0017465d19	858255	10.5	main	z	43	square	global	RVF	yes	present	1	914
5cb489ff0cd1ed0017465d19	860547	10.5	main	z	44	rectangle	local	LVF	yes	present	1	1121
5cb489ff0cd1ed0017465d19	862706	10.5	main	z	45	rectangle	global	RVF	yes	present	1	999
5cb489ff0cd1ed0017465d19	865106	10.5	main	z	46	square	local	LVF	yes	present	1	1215
5cb489ff0cd1ed0017465d19	868244	10.5	main	z	47	absent	absent	absent	no	absent	1	2000
5cb489ff0cd1ed0017465d19	870606	10.5	main	z	48	rectangle	local	RVF	yes	present	1	1148
5cb489ff0cd1ed0017465d19	873824	10.5	main	z	49	absent	absent	absent	no	absent	1	2000
5cb489ff0cd1ed0017465d19	876325	10.5	main	z	50	absent	absent	absent	no	present	0	1365
5cb489ff0cd1ed0017465d19	878899	10.5	main	z	51	absent	absent	absent	no	present	0	1407
5cb489ff0cd1ed0017465d19	881103	10.5	main	z	52	rectangle	global	LVF	yes	present	1	1061
5cb489ff0cd1ed0017465d19	883235	10.5	main	z	53	rectangle	local	LVF	yes	present	1	1079
5cb489ff0cd1ed0017465d19	886291	10.5	main	z	54	absent	absent	absent	no	absent	1	2000
5cb489ff0cd1ed0017465d19	888630	10.5	main	z	55	square	local	LVF	yes	present	1	1020
5cb489ff0cd1ed0017465d19	890850	10.5	main	z	56	square	local	LVF	yes	present	1	1108
5cb489ff0cd1ed0017465d19	893010	10.5	main	z	57	square	local	RVF	yes	present	1	1052
5cb489ff0cd1ed0017465d19	896206	10.5	main	z	58	absent	absent	absent	no	absent	1	2000
5cb489ff0cd1ed0017465d19	898387	10.5	main	z	59	rectangle	global	RVF	yes	present	1	1014
5cb489ff0cd1ed0017465d19	901860	10.5	main	z	60	absent	absent	absent	no	absent	1	2000
5cb489ff0cd1ed0017465d19	903862	10.5	main	z	61	square	global	RVF	yes	present	1	934
5cb489ff0cd1ed0017465d19	906290	10.5	main	z	62	square	global	LVF	yes	present	1	1001
5cb489ff0cd1ed0017465d19	908499	10.5	main	z	63	square	local	RVF	yes	present	1	1040
5cb489ff0cd1ed0017465d19	910638	10.5	main	z	64	rectangle	local	RVF	yes	present	1	1028
5cb489ff0cd1ed0017465d19	912751	10.5	main	z	65	rectangle	global	RVF	yes	present	1	1008
5cb489ff0cd1ed0017465d19	914817	10.5	main	z	66	rectangle	local	LVF	yes	present	1	942
5cb489ff0cd1ed0017465d19	916839	10.5	main	z	67	rectangle	local	RVF	yes	present	1	912
5cb489ff0cd1ed0017465d19	918933	10.5	main	z	68	square	local	LVF	yes	present	1	942
5cb489ff0cd1ed0017465d19	921054	10.5	main	z	69	square	global	RVF	yes	present	1	911
5cb489ff0cd1ed0017465d19	923112	10.5	main	z	70	square	local	RVF	yes	present	1	953
5cb489ff0cd1ed0017465d19	925379	10.5	main	z	71	square	global	RVF	yes	present	1	1122
5cb489ff0cd1ed0017465d19	927494	10.5	main	z	72	rectangle	global	RVF	yes	present	1	937
5cb489ff0cd1ed0017465d19	930694	10.5	main	z	73	square	global	LVF	yes	present	1	985
5cb489ff0cd1ed0017465d19	933007	10.5	main	z	74	rectangle	local	LVF	yes	present	1	1062
5cb489ff0cd1ed0017465d19	935389	10.5	main	z	75	rectangle	global	LVF	yes	present	1	999
5cb489ff0cd1ed0017465d19	937794	10.5	main	z	76	square	local	RVF	yes	present	1	1033
5cb489ff0cd1ed0017465d19	942619	10.5	main	z	77	rectangle	local	RVF	yes	present	1	1042
5cb489ff0cd1ed0017465d19	945976	10.5	main	z	78	absent	absent	absent	no	absent	1	2000
5cb489ff0cd1ed0017465d19	948179	10.5	main	z	79	square	global	LVF	yes	present	1	919
5cb489ff0cd1ed0017465d19	952489	10.5	main	z	80	square	global	LVF	yes	present	1	879
5cb489ff0cd1ed0017465d19	983926	11.5	practice	slash	1	square	global	RVF	yes	present	1	562
5cb489ff0cd1ed0017465d19	986803	11.5	practice	slash	2	square	global	LVF	yes	present	1	704
5cb489ff0cd1ed0017465d19	990922	11.5	practice	slash	3	absent	absent	absent	no	absent	1	2000
5cb489ff0cd1ed0017465d19	993775	11.5	practice	slash	4	rectangle	global	LVF	yes	present	1	824
5cb489ff0cd1ed0017465d19	996692	11.5	practice	slash	5	square	local	LVF	yes	present	1	827
5cb489ff0cd1ed0017465d19	999727	11.5	practice	slash	6	rectangle	global	LVF	yes	present	1	927
5cb489ff0cd1ed0017465d19	1003818	11.5	practice	slash	7	absent	absent	absent	no	absent	1	2000
5cb489ff0cd1ed0017465d19	1008000	11.5	practice	slash	8	absent	absent	absent	no	absent	1	2000
5cb489ff0cd1ed0017465d19	1010996	11.5	practice	slash	9	rectangle	local	RVF	yes	present	1	863
5cb489ff0cd1ed0017465d19	1014485	11.5	practice	slash	10	rectangle	local	RVF	yes	present	1	922
5cb489ff0cd1ed0017465d19	1017246	11.5	practice	slash	11	rectangle	global	RVF	yes	present	1	579
5cb489ff0cd1ed0017465d19	1019984	11.5	practice	slash	12	square	local	LVF	yes	present	1	502
5cb489ff0cd1ed0017465d19	1022675	11.5	practice	slash	13	rectangle	global	RVF	yes	present	1	592
5cb489ff0cd1ed0017465d19	1026801	11.5	practice	slash	14	absent	absent	absent	no	absent	1	2000
5cb489ff0cd1ed0017465d19	1029876	11.5	practice	slash	15	square	global	LVF	yes	present	1	740
5cb489ff0cd1ed0017465d19	1032775	11.5	practice	slash	16	rectangle	local	RVF	yes	present	1	780
5cb489ff0cd1ed0017465d19	1038780	12.5	main	slash	1	square	local	RVF	yes	present	1	935
5cb489ff0cd1ed0017465d19	1041124	12.5	main	slash	2	rectangle	global	LVF	yes	present	1	913
5cb489ff0cd1ed0017465d19	1043755	12.5	main	slash	3	absent	absent	absent	no	present	0	1292
5cb489ff0cd1ed0017465d19	1045793	12.5	main	slash	4	square	global	RVF	yes	present	1	950
5cb489ff0cd1ed0017465d19	1048895	12.5	main	slash	5	absent	absent	absent	no	absent	1	2000
5cb489ff0cd1ed0017465d19	1050865	12.5	main	slash	6	square	local	LVF	yes	present	1	1036
5cb489ff0cd1ed0017465d19	1052786	12.5	main	slash	7	square	global	LVF	yes	present	1	875
5cb489ff0cd1ed0017465d19	1055833	12.5	main	slash	8	absent	absent	absent	no	absent	1	2000
5cb489ff0cd1ed0017465d19	1057630	12.5	main	slash	9	rectangle	global	LVF	yes	present	1	817
5cb489ff0cd1ed0017465d19	1059629	12.5	main	slash	10	square	local	LVF	yes	present	1	881
5cb489ff0cd1ed0017465d19	1062091	12.5	main	slash	11	rectangle	local	RVF	yes	present	1	1395
5cb489ff0cd1ed0017465d19	1065093	12.5	main	slash	12	absent	absent	absent	no	absent	1	2000
5cb489ff0cd1ed0017465d19	1066949	12.5	main	slash	13	rectangle	local	RVF	yes	present	1	872
5cb489ff0cd1ed0017465d19	1068784	12.5	main	slash	14	rectangle	local	LVF	yes	present	1	786
5cb489ff0cd1ed0017465d19	1070678	12.5	main	slash	15	rectangle	local	LVF	yes	present	1	833
5cb489ff0cd1ed0017465d19	1072741	12.5	main	slash	16	rectangle	local	RVF	yes	present	1	947
5cb489ff0cd1ed0017465d19	1074940	12.5	main	slash	17	square	local	RVF	yes	present	1	865
5cb489ff0cd1ed0017465d19	1076914	12.5	main	slash	18	square	local	RVF	yes	present	1	886
5cb489ff0cd1ed0017465d19	1078968	12.5	main	slash	19	square	local	LVF	yes	present	1	1039
5cb489ff0cd1ed0017465d19	1080962	12.5	main	slash	20	square	global	RVF	yes	present	1	951
5cb489ff0cd1ed0017465d19	1083076	12.5	main	slash	21	rectangle	global	LVF	yes	present	1	983
5cb489ff0cd1ed0017465d19	1086248	12.5	main	slash	22	absent	absent	absent	no	absent	1	2000
5cb489ff0cd1ed0017465d19	1088150	12.5	main	slash	23	rectangle	global	RVF	yes	present	1	806
5cb489ff0cd1ed0017465d19	1090085	12.5	main	slash	24	square	global	RVF	yes	present	1	773
5cb489ff0cd1ed0017465d19	1092042	12.5	main	slash	25	rectangle	global	LVF	yes	present	1	863
5cb489ff0cd1ed0017465d19	1094031	12.5	main	slash	26	rectangle	global	RVF	yes	present	1	888
5cb489ff0cd1ed0017465d19	1097648	12.5	main	slash	27	rectangle	local	LVF	yes	absent	0	2000
5cb489ff0cd1ed0017465d19	1099495	12.5	main	slash	28	rectangle	local	LVF	yes	present	1	667
5cb489ff0cd1ed0017465d19	1101329	12.5	main	slash	29	rectangle	global	RVF	yes	present	1	816
5cb489ff0cd1ed0017465d19	1104495	12.5	main	slash	30	absent	absent	absent	no	absent	1	2000
5cb489ff0cd1ed0017465d19	1106367	12.5	main	slash	31	square	global	LVF	yes	present	1	824
5cb489ff0cd1ed0017465d19	1108853	12.5	main	slash	32	square	global	LVF	yes	present	1	890
5cb489ff0cd1ed0017465d19	1111518	12.5	main	slash	33	square	global	LVF	yes	present	1	968
5cb489ff0cd1ed0017465d19	1113699	12.5	main	slash	34	rectangle	global	RVF	yes	present	1	868
5cb489ff0cd1ed0017465d19	1115686	12.5	main	slash	35	square	local	RVF	yes	present	1	890
5cb489ff0cd1ed0017465d19	1117575	12.5	main	slash	36	square	local	LVF	yes	present	1	894
5cb489ff0cd1ed0017465d19	1119428	12.5	main	slash	37	square	global	RVF	yes	present	1	869
5cb489ff0cd1ed0017465d19	1122565	12.5	main	slash	38	absent	absent	absent	no	absent	1	2000
5cb489ff0cd1ed0017465d19	1125569	12.5	main	slash	39	absent	absent	absent	no	absent	1	2000
5cb489ff0cd1ed0017465d19	1127246	12.5	main	slash	40	rectangle	local	RVF	yes	present	1	719
5cb489ff0cd1ed0017465d19	1129055	12.5	main	slash	41	rectangle	global	RVF	yes	present	1	709
5cb489ff0cd1ed0017465d19	1130728	12.5	main	slash	42	square	global	LVF	yes	present	1	615
5cb489ff0cd1ed0017465d19	1132632	12.5	main	slash	43	rectangle	local	RVF	yes	present	1	818
5cb489ff0cd1ed0017465d19	1134939	12.5	main	slash	44	rectangle	local	RVF	yes	present	1	1074
5cb489ff0cd1ed0017465d19	1136850	12.5	main	slash	45	square	global	LVF	yes	present	1	874
5cb489ff0cd1ed0017465d19	1138784	12.5	main	slash	46	square	global	RVF	yes	present	1	850
5cb489ff0cd1ed0017465d19	1140802	12.5	main	slash	47	square	local	LVF	yes	present	1	938
5cb489ff0cd1ed0017465d19	1142837	12.5	main	slash	48	square	local	LVF	yes	present	1	908
5cb489ff0cd1ed0017465d19	1144826	12.5	main	slash	49	square	local	LVF	yes	present	1	914
5cb489ff0cd1ed0017465d19	1146816	12.5	main	slash	50	square	local	LVF	yes	present	1	838
5cb489ff0cd1ed0017465d19	1148729	12.5	main	slash	51	absent	absent	absent	no	present	0	946
5cb489ff0cd1ed0017465d19	1150656	12.5	main	slash	52	rectangle	local	RVF	yes	present	1	910
5cb489ff0cd1ed0017465d19	1152501	12.5	main	slash	53	rectangle	global	LVF	yes	present	1	887
5cb489ff0cd1ed0017465d19	1154519	12.5	main	slash	54	square	global	LVF	yes	present	1	887
5cb489ff0cd1ed0017465d19	1157565	12.5	main	slash	55	absent	absent	absent	no	absent	1	2000
5cb489ff0cd1ed0017465d19	1159370	12.5	main	slash	56	rectangle	local	LVF	yes	present	1	807
5cb489ff0cd1ed0017465d19	1161218	12.5	main	slash	57	rectangle	local	RVF	yes	present	1	837
5cb489ff0cd1ed0017465d19	1163252	12.5	main	slash	58	square	local	RVF	yes	present	1	939
5cb489ff0cd1ed0017465d19	1166247	12.5	main	slash	59	absent	absent	absent	no	absent	1	2000
5cb489ff0cd1ed0017465d19	1168725	12.5	main	slash	60	rectangle	local	LVF	yes	present	1	844
5cb489ff0cd1ed0017465d19	1170819	12.5	main	slash	61	rectangle	local	LVF	yes	present	1	873
5cb489ff0cd1ed0017465d19	1172996	12.5	main	slash	62	square	global	LVF	yes	present	1	866
5cb489ff0cd1ed0017465d19	1176200	12.5	main	slash	63	absent	absent	absent	no	absent	1	2000
5cb489ff0cd1ed0017465d19	1179396	12.5	main	slash	64	absent	absent	absent	no	absent	1	2000
5cb489ff0cd1ed0017465d19	1181266	12.5	main	slash	65	square	global	RVF	yes	present	1	786
5cb489ff0cd1ed0017465d19	1183372	12.5	main	slash	66	square	local	RVF	yes	present	1	844
5cb489ff0cd1ed0017465d19	1185760	12.5	main	slash	67	square	global	RVF	yes	present	1	963
5cb489ff0cd1ed0017465d19	1189067	12.5	main	slash	68	absent	absent	absent	no	absent	1	2000
5cb489ff0cd1ed0017465d19	1190972	12.5	main	slash	69	rectangle	local	LVF	yes	present	1	876
5cb489ff0cd1ed0017465d19	1192922	12.5	main	slash	70	rectangle	global	LVF	yes	present	1	877
5cb489ff0cd1ed0017465d19	1194899	12.5	main	slash	71	rectangle	global	RVF	yes	present	1	850
5cb489ff0cd1ed0017465d19	1196869	12.5	main	slash	72	square	local	RVF	yes	present	1	854
5cb489ff0cd1ed0017465d19	1200081	12.5	main	slash	73	absent	absent	absent	no	absent	1	2000
5cb489ff0cd1ed0017465d19	1201836	12.5	main	slash	74	rectangle	global	RVF	yes	present	1	655
5cb489ff0cd1ed0017465d19	1203711	12.5	main	slash	75	square	global	RVF	yes	present	1	731
5cb489ff0cd1ed0017465d19	1206848	12.5	main	slash	76	absent	absent	absent	no	absent	1	2000
5cb489ff0cd1ed0017465d19	1208424	12.5	main	slash	77	rectangle	global	RVF	yes	present	1	595
5cb489ff0cd1ed0017465d19	1210216	12.5	main	slash	78	square	local	RVF	yes	present	1	717
5cb489ff0cd1ed0017465d19	1212006	12.5	main	slash	79	rectangle	global	LVF	yes	present	1	826
5cb489ff0cd1ed0017465d19	1213904	12.5	main	slash	80	rectangle	global	LVF	yes	present	1	857
