build	computer.platform	date	time	timestamp	time_elapsed_ms	subject	group	session	blockcode	blocknum	trialcode	trialnum	stimulus_left	stimulus_right	stim_index	target_present	response	correct	latency
6.6.1	win	2022-11-07	13:17:17	13:27:38	615692	5eeba783164680119f2e30c7	807387086	1	practice_z	5	practice_z	1	stimuli_target_diamondsquares.svg	stimuli_distractor_diamondtriangles.svg	3	yes	44	1	915
6.6.1	win	2022-11-07	13:17:17	13:27:38	615692	5eeba783164680119f2e30c7	807387086	1	practice_z	5	advance_on_keypress_ZEE	2	stimuli_target_diamondsquares.svg	stimuli_distractor_diamondtriangles.svg	3	yes	57	0	8877
6.6.1	win	2022-11-07	13:17:17	13:27:49	626731	5eeba783164680119f2e30c7	807387086	1	practice_z	5	practice_z	3	stimuli_distractor_diamondtriangles.svg	stimuli_target_circletriangles.svg	7	yes	44	1	482
6.6.1	win	2022-11-07	13:17:17	13:27:49	626731	5eeba783164680119f2e30c7	807387086	1	practice_z	5	advance_on_keypress_ZEE	4	stimuli_distractor_diamondtriangles.svg	stimuli_target_circletriangles.svg	7	yes	57	0	3637
6.6.1	win	2022-11-07	13:17:17	13:27:55	632662	5eeba783164680119f2e30c7	807387086	1	practice_z	5	practice_z	5	stimuli_target_squarediamonds.svg	stimuli_distractor_diamondtriangles.svg	2	yes	44	1	652
6.6.1	win	2022-11-07	13:17:17	13:27:55	632662	5eeba783164680119f2e30c7	807387086	1	practice_z	5	advance_on_keypress_ZEE	6	stimuli_target_squarediamonds.svg	stimuli_distractor_diamondtriangles.svg	2	yes	57	0	4686
6.6.1	win	2022-11-07	13:17:17	13:28:02	639519	5eeba783164680119f2e30c7	807387086	1	practice_z	5	practice_z	7	stimuli_distractor_trianglediamonds.svg	stimuli_target_squarediamonds.svg	11	yes	44	1	532
6.6.1	win	2022-11-07	13:17:17	13:28:02	639519	5eeba783164680119f2e30c7	807387086	1	practice_z	5	advance_on_keypress_ZEE	8	stimuli_distractor_trianglediamonds.svg	stimuli_target_squarediamonds.svg	11	yes	57	0	3467
6.6.1	win	2022-11-07	13:17:17	13:28:08	645730	5eeba783164680119f2e30c7	807387086	1	practice_z	5	practice_z	9	stimuli_distractor_diamondtriangles.svg	stimuli_target_diamondcircles.svg	8	yes	44	1	1097
6.6.1	win	2022-11-07	13:17:17	13:28:08	645730	5eeba783164680119f2e30c7	807387086	1	practice_z	5	advance_on_keypress_ZEE	10	stimuli_distractor_diamondtriangles.svg	stimuli_target_diamondcircles.svg	8	yes	57	0	4724
6.6.1	win	2022-11-07	13:17:17	13:28:15	652561	5eeba783164680119f2e30c7	807387086	1	practice_z	5	practice_z	11	stimuli_distractor_trianglediamonds.svg	stimuli_target_diamondcircles.svg	12	yes	44	1	470
6.6.1	win	2022-11-07	13:17:17	13:28:15	652561	5eeba783164680119f2e30c7	807387086	1	practice_z	5	advance_on_keypress_ZEE	12	stimuli_distractor_trianglediamonds.svg	stimuli_target_diamondcircles.svg	12	yes	57	0	2234
6.6.1	win	2022-11-07	13:17:17	13:28:19	657084	5eeba783164680119f2e30c7	807387086	1	practice_z	5	practice_z	13	stimuli_distractor_trianglediamonds.svg	stimuli_target_circlediamonds.svg	10	yes	44	1	647
6.6.1	win	2022-11-07	13:17:17	13:28:19	657084	5eeba783164680119f2e30c7	807387086	1	practice_z	5	advance_on_keypress_ZEE	14	stimuli_distractor_trianglediamonds.svg	stimuli_target_circlediamonds.svg	10	yes	57	0	5122
6.6.1	win	2022-11-07	13:17:17	13:28:27	664481	5eeba783164680119f2e30c7	807387086	1	practice_z	5	practice_z	15	stimuli_distractor_diamondtriangles.svg	stimuli_distractor_diamondtriangles.svg	13	no	44	0	634
6.6.1	win	2022-11-07	13:17:17	13:28:27	664481	5eeba783164680119f2e30c7	807387086	1	practice_z	5	advance_on_keypress_ZEE	16	stimuli_distractor_diamondtriangles.svg	stimuli_distractor_diamondtriangles.svg	13	no	57	0	4050
6.6.1	win	2022-11-07	13:17:17	13:28:33	670640	5eeba783164680119f2e30c7	807387086	1	practice_z	5	practice_z	17	stimuli_target_circlediamonds.svg	stimuli_distractor_trianglediamonds.svg	4	yes	44	1	466
6.6.1	win	2022-11-07	13:17:17	13:28:33	670640	5eeba783164680119f2e30c7	807387086	1	practice_z	5	advance_on_keypress_ZEE	18	stimuli_target_circlediamonds.svg	stimuli_distractor_trianglediamonds.svg	4	yes	57	0	3660
6.6.1	win	2022-11-07	13:17:17	13:28:39	676437	5eeba783164680119f2e30c7	807387086	1	practice_z	5	practice_z	19	stimuli_target_circlediamonds.svg	stimuli_distractor_diamondtriangles.svg	1	yes	44	1	485
6.6.1	win	2022-11-07	13:17:17	13:28:39	676437	5eeba783164680119f2e30c7	807387086	1	practice_z	5	advance_on_keypress_ZEE	20	stimuli_target_circlediamonds.svg	stimuli_distractor_diamondtriangles.svg	1	yes	57	0	4824
6.6.1	win	2022-11-07	13:17:17	13:28:46	683509	5eeba783164680119f2e30c7	807387086	1	practice_z	5	practice_z	21	stimuli_distractor_diamondtriangles.svg	stimuli_target_trianglecircles.svg	9	yes	44	1	598
6.6.1	win	2022-11-07	13:17:17	13:28:46	683509	5eeba783164680119f2e30c7	807387086	1	practice_z	5	advance_on_keypress_ZEE	22	stimuli_distractor_diamondtriangles.svg	stimuli_target_trianglecircles.svg	9	yes	57	0	2381
6.6.1	win	2022-11-07	13:17:17	13:28:52	689539	5eeba783164680119f2e30c7	807387086	1	practice_z	5	practice_z	23	stimuli_distractor_diamondtriangles.svg	stimuli_distractor_trianglediamonds.svg	14	no	0	1	2000
6.6.1	win	2022-11-07	13:17:17	13:28:52	689539	5eeba783164680119f2e30c7	807387086	1	practice_z	5	advance_on_keypress_ZEE	24	stimuli_distractor_diamondtriangles.svg	stimuli_distractor_trianglediamonds.svg	14	no	57	0	3023
6.6.1	win	2022-11-07	13:17:17	13:28:57	694744	5eeba783164680119f2e30c7	807387086	1	practice_z	5	practice_z	25	stimuli_target_squarediamonds.svg	stimuli_distractor_trianglediamonds.svg	5	yes	44	1	544
6.6.1	win	2022-11-07	13:17:17	13:28:57	694744	5eeba783164680119f2e30c7	807387086	1	practice_z	5	advance_on_keypress_ZEE	26	stimuli_target_squarediamonds.svg	stimuli_distractor_trianglediamonds.svg	5	yes	57	0	3002
6.6.1	win	2022-11-07	13:17:17	13:29:04	701396	5eeba783164680119f2e30c7	807387086	1	practice_z	5	practice_z	27	stimuli_target_diamondsquares.svg	stimuli_distractor_trianglediamonds.svg	6	yes	0	0	2000
6.6.1	win	2022-11-07	13:17:17	13:29:04	701396	5eeba783164680119f2e30c7	807387086	1	practice_z	5	advance_on_keypress_ZEE	28	stimuli_target_diamondsquares.svg	stimuli_distractor_trianglediamonds.svg	6	yes	57	0	2611
6.6.1	win	2022-11-07	13:17:17	13:29:10	707656	5eeba783164680119f2e30c7	807387086	1	practice_z	5	practice_z	29	stimuli_distractor_trianglediamonds.svg	stimuli_distractor_diamondtriangles.svg	16	no	0	1	2000
6.6.1	win	2022-11-07	13:17:17	13:29:10	707656	5eeba783164680119f2e30c7	807387086	1	practice_z	5	advance_on_keypress_ZEE	30	stimuli_distractor_trianglediamonds.svg	stimuli_distractor_diamondtriangles.svg	16	no	57	0	2834
6.6.1	win	2022-11-07	13:17:17	13:29:16	714133	5eeba783164680119f2e30c7	807387086	1	practice_z	5	practice_z	31	stimuli_distractor_trianglediamonds.svg	stimuli_distractor_trianglediamonds.svg	15	no	0	1	2000
6.6.1	win	2022-11-07	13:17:17	13:29:16	714133	5eeba783164680119f2e30c7	807387086	1	practice_z	5	advance_on_keypress_ZEE	32	stimuli_distractor_trianglediamonds.svg	stimuli_distractor_trianglediamonds.svg	15	no	57	0	2343
6.6.1	win	2022-11-07	13:17:17	13:29:16	714133	5eeba783164680119f2e30c7	807387086	1	inst_11_ZEE_main1	6			stimuli_distractor_trianglediamonds.svg	stimuli_distractor_trianglediamonds.svg	15	no	Ctrl+'Q'		