build	computer.platform	date	time	timestamp	time_elapsed_ms	subject	group	session	blockcode	blocknum	trialcode	trialnum	stimulus_left	stimulus_right	stim_index	target_present	response	correct	latency
6.6.1	win	2022-12-14	13:50:55	13:52:52	116333	56259489ed6e5a0005c80fde	179660739	1	practice_slash	5	practice_slash	1	stimuli_target_squarediamonds.svg	stimuli_distractor_diamondtriangles.svg	2	yes	53	1	592
6.6.1	win	2022-12-14	13:50:55	13:52:52	116333	56259489ed6e5a0005c80fde	179660739	1	practice_slash	5	advance_on_keypress_SLASH	2	stimuli_target_squarediamonds.svg	stimuli_distractor_diamondtriangles.svg	2	yes	57	0	1641
6.6.1	win	2022-12-14	13:50:55	13:52:56	120150	56259489ed6e5a0005c80fde	179660739	1	practice_slash	5	practice_slash	3	stimuli_distractor_diamondtriangles.svg	stimuli_target_circletriangles.svg	7	yes	53	1	504
6.6.1	win	2022-12-14	13:50:55	13:52:56	120150	56259489ed6e5a0005c80fde	179660739	1	practice_slash	5	advance_on_keypress_SLASH	4	stimuli_distractor_diamondtriangles.svg	stimuli_target_circletriangles.svg	7	yes	57	0	758
6.6.1	win	2022-12-14	13:50:55	13:52:59	123220	56259489ed6e5a0005c80fde	179660739	1	practice_slash	5	practice_slash	5	stimuli_target_circlediamonds.svg	stimuli_distractor_trianglediamonds.svg	4	yes	53	1	659
6.6.1	win	2022-12-14	13:50:55	13:52:59	123220	56259489ed6e5a0005c80fde	179660739	1	practice_slash	5	advance_on_keypress_SLASH	6	stimuli_target_circlediamonds.svg	stimuli_distractor_trianglediamonds.svg	4	yes	57	0	634
6.6.1	win	2022-12-14	13:50:55	13:53:04	127511	56259489ed6e5a0005c80fde	179660739	1	practice_slash	5	practice_slash	7	stimuli_distractor_diamondtriangles.svg	stimuli_target_trianglecircles.svg	9	yes	0	0	2000
6.6.1	win	2022-12-14	13:50:55	13:53:04	127511	56259489ed6e5a0005c80fde	179660739	1	practice_slash	5	advance_on_keypress_SLASH	8	stimuli_distractor_diamondtriangles.svg	stimuli_target_trianglecircles.svg	9	yes	57	0	653
6.6.1	win	2022-12-14	13:50:55	13:53:07	130568	56259489ed6e5a0005c80fde	179660739	1	practice_slash	5	practice_slash	9	stimuli_distractor_trianglediamonds.svg	stimuli_target_circlediamonds.svg	10	yes	53	1	754
6.6.1	win	2022-12-14	13:50:55	13:53:07	130568	56259489ed6e5a0005c80fde	179660739	1	practice_slash	5	advance_on_keypress_SLASH	10	stimuli_distractor_trianglediamonds.svg	stimuli_target_circlediamonds.svg	10	yes	57	0	886
6.6.1	win	2022-12-14	13:50:55	13:53:11	135098	56259489ed6e5a0005c80fde	179660739	1	practice_slash	5	practice_slash	11	stimuli_distractor_trianglediamonds.svg	stimuli_target_diamondcircles.svg	12	yes	0	0	2000
6.6.1	win	2022-12-14	13:50:55	13:53:11	135098	56259489ed6e5a0005c80fde	179660739	1	practice_slash	5	advance_on_keypress_SLASH	12	stimuli_distractor_trianglediamonds.svg	stimuli_target_diamondcircles.svg	12	yes	57	0	371
6.6.1	win	2022-12-14	13:50:55	13:53:15	139116	56259489ed6e5a0005c80fde	179660739	1	practice_slash	5	practice_slash	13	stimuli_distractor_trianglediamonds.svg	stimuli_distractor_diamondtriangles.svg	16	no	0	1	2000
6.6.1	win	2022-12-14	13:50:55	13:53:15	139116	56259489ed6e5a0005c80fde	179660739	1	practice_slash	5	advance_on_keypress_SLASH	14	stimuli_distractor_trianglediamonds.svg	stimuli_distractor_diamondtriangles.svg	16	no	57	0	688
6.6.1	win	2022-12-14	13:50:55	13:53:20	143451	56259489ed6e5a0005c80fde	179660739	1	practice_slash	5	practice_slash	15	stimuli_distractor_trianglediamonds.svg	stimuli_distractor_trianglediamonds.svg	15	no	0	1	2000
6.6.1	win	2022-12-14	13:50:55	13:53:20	143451	56259489ed6e5a0005c80fde	179660739	1	practice_slash	5	advance_on_keypress_SLASH	16	stimuli_distractor_trianglediamonds.svg	stimuli_distractor_trianglediamonds.svg	15	no	57	0	483
6.6.1	win	2022-12-14	13:50:55	13:53:22	146238	56259489ed6e5a0005c80fde	179660739	1	practice_slash	5	practice_slash	17	stimuli_target_squarediamonds.svg	stimuli_distractor_trianglediamonds.svg	5	yes	53	1	651
6.6.1	win	2022-12-14	13:50:55	13:53:22	146238	56259489ed6e5a0005c80fde	179660739	1	practice_slash	5	advance_on_keypress_SLASH	18	stimuli_target_squarediamonds.svg	stimuli_distractor_trianglediamonds.svg	5	yes	57	0	505
6.6.1	win	2022-12-14	13:50:55	13:53:25	149125	56259489ed6e5a0005c80fde	179660739	1	practice_slash	5	practice_slash	19	stimuli_target_circlediamonds.svg	stimuli_distractor_diamondtriangles.svg	1	yes	53	1	738
6.6.1	win	2022-12-14	13:50:55	13:53:25	149125	56259489ed6e5a0005c80fde	179660739	1	practice_slash	5	advance_on_keypress_SLASH	20	stimuli_target_circlediamonds.svg	stimuli_distractor_diamondtriangles.svg	1	yes	57	0	460
6.6.1	win	2022-12-14	13:50:55	13:53:29	153238	56259489ed6e5a0005c80fde	179660739	1	practice_slash	5	practice_slash	21	stimuli_target_diamondsquares.svg	stimuli_distractor_diamondtriangles.svg	3	yes	0	0	2000
6.6.1	win	2022-12-14	13:50:55	13:53:29	153238	56259489ed6e5a0005c80fde	179660739	1	practice_slash	5	advance_on_keypress_SLASH	22	stimuli_target_diamondsquares.svg	stimuli_distractor_diamondtriangles.svg	3	yes	57	0	309
6.6.1	win	2022-12-14	13:50:55	13:53:32	156071	56259489ed6e5a0005c80fde	179660739	1	practice_slash	5	practice_slash	23	stimuli_distractor_diamondtriangles.svg	stimuli_target_diamondcircles.svg	8	yes	53	1	865
6.6.1	win	2022-12-14	13:50:55	13:53:32	156071	56259489ed6e5a0005c80fde	179660739	1	practice_slash	5	advance_on_keypress_SLASH	24	stimuli_distractor_diamondtriangles.svg	stimuli_target_diamondcircles.svg	8	yes	57	0	500
6.6.1	win	2022-12-14	13:50:55	13:53:36	160225	56259489ed6e5a0005c80fde	179660739	1	practice_slash	5	practice_slash	25	stimuli_distractor_diamondtriangles.svg	stimuli_distractor_trianglediamonds.svg	14	no	0	1	2000
6.6.1	win	2022-12-14	13:50:55	13:53:36	160225	56259489ed6e5a0005c80fde	179660739	1	practice_slash	5	advance_on_keypress_SLASH	26	stimuli_distractor_diamondtriangles.svg	stimuli_distractor_trianglediamonds.svg	14	no	57	0	394
6.6.1	win	2022-12-14	13:50:55	13:53:40	164276	56259489ed6e5a0005c80fde	179660739	1	practice_slash	5	practice_slash	27	stimuli_target_diamondsquares.svg	stimuli_distractor_trianglediamonds.svg	6	yes	0	0	2000
6.6.1	win	2022-12-14	13:50:55	13:53:40	164276	56259489ed6e5a0005c80fde	179660739	1	practice_slash	5	advance_on_keypress_SLASH	28	stimuli_target_diamondsquares.svg	stimuli_distractor_trianglediamonds.svg	6	yes	57	0	403
6.6.1	win	2022-12-14	13:50:55	13:53:43	167068	56259489ed6e5a0005c80fde	179660739	1	practice_slash	5	practice_slash	29	stimuli_distractor_trianglediamonds.svg	stimuli_target_squarediamonds.svg	11	yes	53	1	741
6.6.1	win	2022-12-14	13:50:55	13:53:43	167068	56259489ed6e5a0005c80fde	179660739	1	practice_slash	5	advance_on_keypress_SLASH	30	stimuli_distractor_trianglediamonds.svg	stimuli_target_squarediamonds.svg	11	yes	57	0	769
6.6.1	win	2022-12-14	13:50:55	13:53:48	171478	56259489ed6e5a0005c80fde	179660739	1	practice_slash	5	practice_slash	31	stimuli_distractor_diamondtriangles.svg	stimuli_distractor_diamondtriangles.svg	13	no	0	1	2000
6.6.1	win	2022-12-14	13:50:55	13:53:48	171478	56259489ed6e5a0005c80fde	179660739	1	practice_slash	5	advance_on_keypress_SLASH	32	stimuli_distractor_diamondtriangles.svg	stimuli_distractor_diamondtriangles.svg	13	no	57	0	375
6.6.1	win	2022-12-14	13:50:55	13:54:01	184598	56259489ed6e5a0005c80fde	179660739	1	main_slash	7	main_slash	1	stimuli_distractor_diamondtriangles.svg	stimuli_target_trianglesquares.svg	30	yes	0	0	2000
6.6.1	win	2022-12-14	13:50:55	13:54:01	184598	56259489ed6e5a0005c80fde	179660739	1	main_slash	7	advance_on_keypress_SLASH	2	stimuli_distractor_diamondtriangles.svg	stimuli_target_trianglesquares.svg	30	yes	57	0	1126
6.6.1	win	2022-12-14	13:50:55	13:54:05	188366	56259489ed6e5a0005c80fde	179660739	1	main_slash	7	main_slash	3	stimuli_target_trianglesquares.svg	stimuli_distractor_diamondtriangles.svg	22	yes	0	0	2000
6.6.1	win	2022-12-14	13:50:55	13:54:05	188366	56259489ed6e5a0005c80fde	179660739	1	main_slash	7	advance_on_keypress_SLASH	4	stimuli_target_trianglesquares.svg	stimuli_distractor_diamondtriangles.svg	22	yes	57	0	400
6.6.1	win	2022-12-14	13:50:55	13:54:06	190155	56259489ed6e5a0005c80fde	179660739	1	main_slash	7	main_slash	5	stimuli_distractor_trianglediamonds.svg	stimuli_target_diamondsquares.svg	28	yes	53	1	737
6.6.1	win	2022-12-14	13:50:55	13:54:06	190155	56259489ed6e5a0005c80fde	179660739	1	main_slash	7	advance_on_keypress_SLASH	6	stimuli_distractor_trianglediamonds.svg	stimuli_target_diamondsquares.svg	28	yes	57	0	1139
6.6.1	win	2022-12-14	13:50:55	13:54:09	192815	56259489ed6e5a0005c80fde	179660739	1	main_slash	7	main_slash	7	stimuli_target_circlediamonds.svg	stimuli_distractor_diamondtriangles.svg	6	yes	53	1	879
6.6.1	win	2022-12-14	13:50:55	13:54:09	192815	56259489ed6e5a0005c80fde	179660739	1	main_slash	7	advance_on_keypress_SLASH	8	stimuli_target_circlediamonds.svg	stimuli_distractor_diamondtriangles.svg	6	yes	57	0	1869
6.6.1	win	2022-12-14	13:50:55	13:54:13	197336	56259489ed6e5a0005c80fde	179660739	1	main_slash	7	main_slash	9	stimuli_distractor_trianglediamonds.svg	stimuli_distractor_trianglediamonds.svg	33	no	0	1	2000
6.6.1	win	2022-12-14	13:50:55	13:54:13	197336	56259489ed6e5a0005c80fde	179660739	1	main_slash	7	advance_on_keypress_SLASH	10	stimuli_distractor_trianglediamonds.svg	stimuli_distractor_trianglediamonds.svg	33	no	57	0	399
6.6.1	win	2022-12-14	13:50:55	13:54:17	200388	56259489ed6e5a0005c80fde	179660739	1	main_slash	7	main_slash	11	stimuli_distractor_diamondtriangles.svg	stimuli_distractor_diamondtriangles.svg	40	no	0	1	2000
6.6.1	win	2022-12-14	13:50:55	13:54:17	200388	56259489ed6e5a0005c80fde	179660739	1	main_slash	7	advance_on_keypress_SLASH	12	stimuli_distractor_diamondtriangles.svg	stimuli_distractor_diamondtriangles.svg	40	no	57	0	526
6.6.1	win	2022-12-14	13:50:55	13:54:18	202299	56259489ed6e5a0005c80fde	179660739	1	main_slash	7	main_slash	13	stimuli_distractor_trianglediamonds.svg	stimuli_target_circletriangles.svg	9	yes	53	1	726
6.6.1	win	2022-12-14	13:50:55	13:54:18	202299	56259489ed6e5a0005c80fde	179660739	1	main_slash	7	advance_on_keypress_SLASH	14	stimuli_distractor_trianglediamonds.svg	stimuli_target_circletriangles.svg	9	yes	57	0	978
6.6.1	win	2022-12-14	13:50:55	13:54:21	205103	56259489ed6e5a0005c80fde	179660739	1	main_slash	7	main_slash	15	stimuli_target_trianglecircles.svg	stimuli_distractor_trianglediamonds.svg	17	yes	53	1	1180
6.6.1	win	2022-12-14	13:50:55	13:54:21	205103	56259489ed6e5a0005c80fde	179660739	1	main_slash	7	advance_on_keypress_SLASH	16	stimuli_target_trianglecircles.svg	stimuli_distractor_trianglediamonds.svg	17	yes	57	0	1764
6.6.1	win	2022-12-14	13:50:55	13:54:25	208517	56259489ed6e5a0005c80fde	179660739	1	main_slash	7	main_slash	17	stimuli_target_trianglesquares.svg	stimuli_distractor_trianglediamonds.svg	18	yes	53	1	992
6.6.1	win	2022-12-14	13:50:55	13:54:25	208517	56259489ed6e5a0005c80fde	179660739	1	main_slash	7	advance_on_keypress_SLASH	18	stimuli_target_trianglesquares.svg	stimuli_distractor_trianglediamonds.svg	18	yes	57	0	1102
6.6.1	win	2022-12-14	13:50:55	13:54:27	211224	56259489ed6e5a0005c80fde	179660739	1	main_slash	7	main_slash	19	stimuli_distractor_trianglediamonds.svg	stimuli_target_trianglecircles.svg	25	yes	53	1	965
6.6.1	win	2022-12-14	13:50:55	13:54:27	211224	56259489ed6e5a0005c80fde	179660739	1	main_slash	7	advance_on_keypress_SLASH	20	stimuli_distractor_trianglediamonds.svg	stimuli_target_trianglecircles.svg	25	yes	57	0	1025
6.6.1	win	2022-12-14	13:50:55	13:54:30	213944	56259489ed6e5a0005c80fde	179660739	1	main_slash	7	main_slash	21	stimuli_target_squarediamonds.svg	stimuli_distractor_trianglediamonds.svg	4	yes	53	1	1051
6.6.1	win	2022-12-14	13:50:55	13:54:30	213944	56259489ed6e5a0005c80fde	179660739	1	main_slash	7	advance_on_keypress_SLASH	22	stimuli_target_squarediamonds.svg	stimuli_distractor_trianglediamonds.svg	4	yes	57	0	1399
6.6.1	win	2022-12-14	13:50:55	13:54:34	217994	56259489ed6e5a0005c80fde	179660739	1	main_slash	7	main_slash	23	stimuli_distractor_diamondtriangles.svg	stimuli_distractor_trianglediamonds.svg	37	no	0	1	2000
6.6.1	win	2022-12-14	13:50:55	13:54:34	217994	56259489ed6e5a0005c80fde	179660739	1	main_slash	7	advance_on_keypress_SLASH	24	stimuli_distractor_diamondtriangles.svg	stimuli_distractor_trianglediamonds.svg	37	no	57	0	334
6.6.1	win	2022-12-14	13:50:55	13:54:36	219738	56259489ed6e5a0005c80fde	179660739	1	main_slash	7	main_slash	25	stimuli_distractor_trianglediamonds.svg	stimuli_target_circlediamonds.svg	10	yes	53	1	760
6.6.1	win	2022-12-14	13:50:55	13:54:36	219738	56259489ed6e5a0005c80fde	179660739	1	main_slash	7	advance_on_keypress_SLASH	26	stimuli_distractor_trianglediamonds.svg	stimuli_target_circlediamonds.svg	10	yes	57	0	1289
6.6.1	win	2022-12-14	13:50:55	13:54:40	223680	56259489ed6e5a0005c80fde	179660739	1	main_slash	7	main_slash	27	stimuli_distractor_diamondtriangles.svg	stimuli_distractor_diamondtriangles.svg	39	no	0	1	2000
6.6.1	win	2022-12-14	13:50:55	13:54:40	223680	56259489ed6e5a0005c80fde	179660739	1	main_slash	7	advance_on_keypress_SLASH	28	stimuli_distractor_diamondtriangles.svg	stimuli_distractor_diamondtriangles.svg	39	no	57	0	415
6.6.1	win	2022-12-14	13:50:55	13:54:42	225486	56259489ed6e5a0005c80fde	179660739	1	main_slash	7	main_slash	29	stimuli_target_diamondcircles.svg	stimuli_distractor_diamondtriangles.svg	23	yes	53	1	739
6.6.1	win	2022-12-14	13:50:55	13:54:42	225486	56259489ed6e5a0005c80fde	179660739	1	main_slash	7	advance_on_keypress_SLASH	30	stimuli_target_diamondcircles.svg	stimuli_distractor_diamondtriangles.svg	23	yes	57	0	1117
6.6.1	win	2022-12-14	13:50:55	13:54:44	227975	56259489ed6e5a0005c80fde	179660739	1	main_slash	7	main_slash	31	stimuli_target_squarediamonds.svg	stimuli_distractor_diamondtriangles.svg	8	yes	53	1	726
6.6.1	win	2022-12-14	13:50:55	13:54:44	227975	56259489ed6e5a0005c80fde	179660739	1	main_slash	7	advance_on_keypress_SLASH	32	stimuli_target_squarediamonds.svg	stimuli_distractor_diamondtriangles.svg	8	yes	57	0	888
6.6.1	win	2022-12-14	13:50:55	13:54:46	230227	56259489ed6e5a0005c80fde	179660739	1	main_slash	7	main_slash	33	stimuli_target_trianglecircles.svg	stimuli_distractor_diamondtriangles.svg	21	yes	53	1	711
6.6.1	win	2022-12-14	13:50:55	13:54:46	230227	56259489ed6e5a0005c80fde	179660739	1	main_slash	7	advance_on_keypress_SLASH	34	stimuli_target_trianglecircles.svg	stimuli_distractor_diamondtriangles.svg	21	yes	57	0	986
6.6.1	win	2022-12-14	13:50:55	13:54:49	232668	56259489ed6e5a0005c80fde	179660739	1	main_slash	7	main_slash	35	stimuli_distractor_trianglediamonds.svg	stimuli_target_trianglesquares.svg	26	yes	53	1	818
6.6.1	win	2022-12-14	13:50:55	13:54:49	232668	56259489ed6e5a0005c80fde	179660739	1	main_slash	7	advance_on_keypress_SLASH	36	stimuli_distractor_trianglediamonds.svg	stimuli_target_trianglesquares.svg	26	yes	57	0	783
6.6.1	win	2022-12-14	13:50:55	13:54:51	234739	56259489ed6e5a0005c80fde	179660739	1	main_slash	7	main_slash	37	stimuli_distractor_diamondtriangles.svg	stimuli_target_squarediamonds.svg	16	yes	53	1	638
6.6.1	win	2022-12-14	13:50:55	13:54:51	234739	56259489ed6e5a0005c80fde	179660739	1	main_slash	7	advance_on_keypress_SLASH	38	stimuli_distractor_diamondtriangles.svg	stimuli_target_squarediamonds.svg	16	yes	57	0	855
6.6.1	win	2022-12-14	13:50:55	13:54:53	236767	56259489ed6e5a0005c80fde	179660739	1	main_slash	7	main_slash	39	stimuli_distractor_diamondtriangles.svg	stimuli_target_circlediamonds.svg	14	yes	53	1	532
6.6.1	win	2022-12-14	13:50:55	13:54:53	236767	56259489ed6e5a0005c80fde	179660739	1	main_slash	7	advance_on_keypress_SLASH	40	stimuli_distractor_diamondtriangles.svg	stimuli_target_circlediamonds.svg	14	yes	57	0	1186
6.6.1	win	2022-12-14	13:50:55	13:54:57	240603	56259489ed6e5a0005c80fde	179660739	1	main_slash	7	main_slash	41	stimuli_distractor_diamondtriangles.svg	stimuli_distractor_trianglediamonds.svg	38	no	0	1	2000
6.6.1	win	2022-12-14	13:50:55	13:54:57	240603	56259489ed6e5a0005c80fde	179660739	1	main_slash	7	advance_on_keypress_SLASH	42	stimuli_distractor_diamondtriangles.svg	stimuli_distractor_trianglediamonds.svg	38	no	57	0	364
6.6.1	win	2022-12-14	13:50:55	13:54:58	242320	56259489ed6e5a0005c80fde	179660739	1	main_slash	7	main_slash	43	stimuli_target_squaretriangles.svg	stimuli_distractor_diamondtriangles.svg	7	yes	53	1	700
6.6.1	win	2022-12-14	13:50:55	13:54:58	242320	56259489ed6e5a0005c80fde	179660739	1	main_slash	7	advance_on_keypress_SLASH	44	stimuli_target_squaretriangles.svg	stimuli_distractor_diamondtriangles.svg	7	yes	57	0	607
6.6.1	win	2022-12-14	13:50:55	13:55:02	245572	56259489ed6e5a0005c80fde	179660739	1	main_slash	7	main_slash	45	stimuli_distractor_trianglediamonds.svg	stimuli_distractor_diamondtriangles.svg	36	no	0	1	2000
6.6.1	win	2022-12-14	13:50:55	13:55:02	245572	56259489ed6e5a0005c80fde	179660739	1	main_slash	7	advance_on_keypress_SLASH	46	stimuli_distractor_trianglediamonds.svg	stimuli_distractor_diamondtriangles.svg	36	no	57	0	309
6.6.1	win	2022-12-14	13:50:55	13:55:04	247545	56259489ed6e5a0005c80fde	179660739	1	main_slash	7	main_slash	47	stimuli_distractor_trianglediamonds.svg	stimuli_target_squaretriangles.svg	11	yes	53	1	1023
6.6.1	win	2022-12-14	13:50:55	13:55:04	247545	56259489ed6e5a0005c80fde	179660739	1	main_slash	7	advance_on_keypress_SLASH	48	stimuli_distractor_trianglediamonds.svg	stimuli_target_squaretriangles.svg	11	yes	57	0	657
6.6.1	win	2022-12-14	13:50:55	13:55:06	249819	56259489ed6e5a0005c80fde	179660739	1	main_slash	7	main_slash	49	stimuli_distractor_diamondtriangles.svg	stimuli_target_trianglecircles.svg	29	yes	53	1	979
6.6.1	win	2022-12-14	13:50:55	13:55:06	249819	56259489ed6e5a0005c80fde	179660739	1	main_slash	7	advance_on_keypress_SLASH	50	stimuli_distractor_diamondtriangles.svg	stimuli_target_trianglecircles.svg	29	yes	57	0	855
6.6.1	win	2022-12-14	13:50:55	13:55:08	252217	56259489ed6e5a0005c80fde	179660739	1	main_slash	7	main_slash	51	stimuli_target_circletriangles.svg	stimuli_distractor_diamondtriangles.svg	5	yes	53	1	892
6.6.1	win	2022-12-14	13:50:55	13:55:08	252217	56259489ed6e5a0005c80fde	179660739	1	main_slash	7	advance_on_keypress_SLASH	52	stimuli_target_circletriangles.svg	stimuli_distractor_diamondtriangles.svg	5	yes	57	0	868
6.6.1	win	2022-12-14	13:50:55	13:55:11	254627	56259489ed6e5a0005c80fde	179660739	1	main_slash	7	main_slash	53	stimuli_target_squaretriangles.svg	stimuli_distractor_trianglediamonds.svg	3	yes	53	1	902
6.6.1	win	2022-12-14	13:50:55	13:55:11	254627	56259489ed6e5a0005c80fde	179660739	1	main_slash	7	advance_on_keypress_SLASH	54	stimuli_target_squaretriangles.svg	stimuli_distractor_trianglediamonds.svg	3	yes	57	0	732
6.6.1	win	2022-12-14	13:50:55	13:55:13	256906	56259489ed6e5a0005c80fde	179660739	1	main_slash	7	main_slash	55	stimuli_distractor_diamondtriangles.svg	stimuli_target_diamondcircles.svg	31	yes	53	1	897
6.6.1	win	2022-12-14	13:50:55	13:55:13	256906	56259489ed6e5a0005c80fde	179660739	1	main_slash	7	advance_on_keypress_SLASH	56	stimuli_distractor_diamondtriangles.svg	stimuli_target_diamondcircles.svg	31	yes	57	0	793
6.6.1	win	2022-12-14	13:50:55	13:55:15	259292	56259489ed6e5a0005c80fde	179660739	1	main_slash	7	main_slash	57	stimuli_distractor_diamondtriangles.svg	stimuli_target_diamondsquares.svg	32	yes	53	1	931
6.6.1	win	2022-12-14	13:50:55	13:55:15	259292	56259489ed6e5a0005c80fde	179660739	1	main_slash	7	advance_on_keypress_SLASH	58	stimuli_distractor_diamondtriangles.svg	stimuli_target_diamondsquares.svg	32	yes	57	0	568
6.6.1	win	2022-12-14	13:50:55	13:55:18	261525	56259489ed6e5a0005c80fde	179660739	1	main_slash	7	main_slash	59	stimuli_target_diamondcircles.svg	stimuli_distractor_trianglediamonds.svg	19	yes	53	1	1013
6.6.1	win	2022-12-14	13:50:55	13:55:18	261525	56259489ed6e5a0005c80fde	179660739	1	main_slash	7	advance_on_keypress_SLASH	60	stimuli_target_diamondcircles.svg	stimuli_distractor_trianglediamonds.svg	19	yes	57	0	929
6.6.1	win	2022-12-14	13:50:55	13:55:20	264105	56259489ed6e5a0005c80fde	179660739	1	main_slash	7	main_slash	61	stimuli_distractor_trianglediamonds.svg	stimuli_target_squarediamonds.svg	12	yes	53	1	993
6.6.1	win	2022-12-14	13:50:55	13:55:20	264105	56259489ed6e5a0005c80fde	179660739	1	main_slash	7	advance_on_keypress_SLASH	62	stimuli_distractor_trianglediamonds.svg	stimuli_target_squarediamonds.svg	12	yes	57	0	679
6.6.1	win	2022-12-14	13:50:55	13:55:23	266473	56259489ed6e5a0005c80fde	179660739	1	main_slash	7	main_slash	63	stimuli_target_circletriangles.svg	stimuli_distractor_trianglediamonds.svg	1	yes	53	1	1042
6.6.1	win	2022-12-14	13:50:55	13:55:23	266473	56259489ed6e5a0005c80fde	179660739	1	main_slash	7	advance_on_keypress_SLASH	64	stimuli_target_circletriangles.svg	stimuli_distractor_trianglediamonds.svg	1	yes	57	0	724
6.6.1	win	2022-12-14	13:50:55	13:55:25	268980	56259489ed6e5a0005c80fde	179660739	1	main_slash	7	main_slash	65	stimuli_target_diamondsquares.svg	stimuli_distractor_trianglediamonds.svg	20	yes	53	1	1148
6.6.1	win	2022-12-14	13:50:55	13:55:25	268980	56259489ed6e5a0005c80fde	179660739	1	main_slash	7	advance_on_keypress_SLASH	66	stimuli_target_diamondsquares.svg	stimuli_distractor_trianglediamonds.svg	20	yes	57	0	882
6.6.1	win	2022-12-14	13:50:55	13:55:28	271613	56259489ed6e5a0005c80fde	179660739	1	main_slash	7	main_slash	67	stimuli_distractor_diamondtriangles.svg	stimuli_target_squaretriangles.svg	15	yes	53	1	1098
6.6.1	win	2022-12-14	13:50:55	13:55:28	271613	56259489ed6e5a0005c80fde	179660739	1	main_slash	7	advance_on_keypress_SLASH	68	stimuli_distractor_diamondtriangles.svg	stimuli_target_squaretriangles.svg	15	yes	57	0	788
6.6.1	win	2022-12-14	13:50:55	13:55:31	275050	56259489ed6e5a0005c80fde	179660739	1	main_slash	7	main_slash	69	stimuli_distractor_trianglediamonds.svg	stimuli_distractor_diamondtriangles.svg	35	no	0	1	2000
6.6.1	win	2022-12-14	13:50:55	13:55:31	275050	56259489ed6e5a0005c80fde	179660739	1	main_slash	7	advance_on_keypress_SLASH	70	stimuli_distractor_trianglediamonds.svg	stimuli_distractor_diamondtriangles.svg	35	no	57	0	438
6.6.1	win	2022-12-14	13:50:55	13:55:33	277032	56259489ed6e5a0005c80fde	179660739	1	main_slash	7	main_slash	71	stimuli_target_circlediamonds.svg	stimuli_distractor_trianglediamonds.svg	2	yes	53	1	898
6.6.1	win	2022-12-14	13:50:55	13:55:33	277032	56259489ed6e5a0005c80fde	179660739	1	main_slash	7	advance_on_keypress_SLASH	72	stimuli_target_circlediamonds.svg	stimuli_distractor_trianglediamonds.svg	2	yes	57	0	566
6.6.1	win	2022-12-14	13:50:55	13:55:35	279162	56259489ed6e5a0005c80fde	179660739	1	main_slash	7	main_slash	73	stimuli_distractor_diamondtriangles.svg	stimuli_target_circletriangles.svg	13	yes	53	1	910
6.6.1	win	2022-12-14	13:50:55	13:55:35	279162	56259489ed6e5a0005c80fde	179660739	1	main_slash	7	advance_on_keypress_SLASH	74	stimuli_distractor_diamondtriangles.svg	stimuli_target_circletriangles.svg	13	yes	57	0	748
6.6.1	win	2022-12-14	13:50:55	13:55:38	281534	56259489ed6e5a0005c80fde	179660739	1	main_slash	7	main_slash	75	stimuli_distractor_trianglediamonds.svg	stimuli_target_diamondcircles.svg	27	yes	53	1	982
6.6.1	win	2022-12-14	13:50:55	13:55:38	281534	56259489ed6e5a0005c80fde	179660739	1	main_slash	7	advance_on_keypress_SLASH	76	stimuli_distractor_trianglediamonds.svg	stimuli_target_diamondcircles.svg	27	yes	57	0	559
6.6.1	win	2022-12-14	13:50:55	13:55:41	284737	56259489ed6e5a0005c80fde	179660739	1	main_slash	7	main_slash	77	stimuli_distractor_trianglediamonds.svg	stimuli_distractor_trianglediamonds.svg	34	no	0	1	2000
6.6.1	win	2022-12-14	13:50:55	13:55:41	284737	56259489ed6e5a0005c80fde	179660739	1	main_slash	7	advance_on_keypress_SLASH	78	stimuli_distractor_trianglediamonds.svg	stimuli_distractor_trianglediamonds.svg	34	no	57	0	454
6.6.1	win	2022-12-14	13:50:55	13:55:43	286957	56259489ed6e5a0005c80fde	179660739	1	main_slash	7	main_slash	79	stimuli_target_diamondsquares.svg	stimuli_distractor_diamondtriangles.svg	24	yes	53	1	1120
6.6.1	win	2022-12-14	13:50:55	13:55:43	286957	56259489ed6e5a0005c80fde	179660739	1	main_slash	7	advance_on_keypress_SLASH	80	stimuli_target_diamondsquares.svg	stimuli_distractor_diamondtriangles.svg	24	yes	57	0	632
6.6.1	win	2022-12-14	13:50:55	13:55:45	289209	56259489ed6e5a0005c80fde	179660739	1	main_slash	7	main_slash	81	stimuli_target_circlediamonds.svg	stimuli_distractor_trianglediamonds.svg	2	yes	53	1	971
6.6.1	win	2022-12-14	13:50:55	13:55:45	289209	56259489ed6e5a0005c80fde	179660739	1	main_slash	7	advance_on_keypress_SLASH	82	stimuli_target_circlediamonds.svg	stimuli_distractor_trianglediamonds.svg	2	yes	57	0	584
6.6.1	win	2022-12-14	13:50:55	13:55:48	291403	56259489ed6e5a0005c80fde	179660739	1	main_slash	7	main_slash	83	stimuli_target_trianglesquares.svg	stimuli_distractor_trianglediamonds.svg	18	yes	53	1	963
6.6.1	win	2022-12-14	13:50:55	13:55:48	291403	56259489ed6e5a0005c80fde	179660739	1	main_slash	7	advance_on_keypress_SLASH	84	stimuli_target_trianglesquares.svg	stimuli_distractor_trianglediamonds.svg	18	yes	57	0	687
6.6.1	win	2022-12-14	13:50:55	13:55:50	293688	56259489ed6e5a0005c80fde	179660739	1	main_slash	7	main_slash	85	stimuli_distractor_diamondtriangles.svg	stimuli_target_diamondcircles.svg	31	yes	53	1	947
6.6.1	win	2022-12-14	13:50:55	13:55:50	293688	56259489ed6e5a0005c80fde	179660739	1	main_slash	7	advance_on_keypress_SLASH	86	stimuli_distractor_diamondtriangles.svg	stimuli_target_diamondcircles.svg	31	yes	57	0	556
6.6.1	win	2022-12-14	13:50:55	13:55:52	295721	56259489ed6e5a0005c80fde	179660739	1	main_slash	7	main_slash	87	stimuli_target_circletriangles.svg	stimuli_distractor_trianglediamonds.svg	1	yes	53	1	830
6.6.1	win	2022-12-14	13:50:55	13:55:52	295721	56259489ed6e5a0005c80fde	179660739	1	main_slash	7	advance_on_keypress_SLASH	88	stimuli_target_circletriangles.svg	stimuli_distractor_trianglediamonds.svg	1	yes	57	0	488
6.6.1	win	2022-12-14	13:50:55	13:55:54	297679	56259489ed6e5a0005c80fde	179660739	1	main_slash	7	main_slash	89	stimuli_target_diamondsquares.svg	stimuli_distractor_diamondtriangles.svg	24	yes	53	1	821
6.6.1	win	2022-12-14	13:50:55	13:55:54	297679	56259489ed6e5a0005c80fde	179660739	1	main_slash	7	advance_on_keypress_SLASH	90	stimuli_target_diamondsquares.svg	stimuli_distractor_diamondtriangles.svg	24	yes	57	0	636
6.6.1	win	2022-12-14	13:50:55	13:55:56	299803	56259489ed6e5a0005c80fde	179660739	1	main_slash	7	main_slash	91	stimuli_target_circlediamonds.svg	stimuli_distractor_diamondtriangles.svg	6	yes	53	1	843
6.6.1	win	2022-12-14	13:50:55	13:55:56	299803	56259489ed6e5a0005c80fde	179660739	1	main_slash	7	advance_on_keypress_SLASH	92	stimuli_target_circlediamonds.svg	stimuli_distractor_diamondtriangles.svg	6	yes	57	0	683
6.6.1	win	2022-12-14	13:50:55	13:55:58	301995	56259489ed6e5a0005c80fde	179660739	1	main_slash	7	main_slash	93	stimuli_distractor_trianglediamonds.svg	stimuli_target_squaretriangles.svg	11	yes	53	1	869
6.6.1	win	2022-12-14	13:50:55	13:55:58	301995	56259489ed6e5a0005c80fde	179660739	1	main_slash	7	advance_on_keypress_SLASH	94	stimuli_distractor_trianglediamonds.svg	stimuli_target_squaretriangles.svg	11	yes	57	0	659
6.6.1	win	2022-12-14	13:50:55	13:56:00	304131	56259489ed6e5a0005c80fde	179660739	1	main_slash	7	main_slash	95	stimuli_distractor_diamondtriangles.svg	stimuli_target_squaretriangles.svg	15	yes	53	1	836
6.6.1	win	2022-12-14	13:50:55	13:56:00	304131	56259489ed6e5a0005c80fde	179660739	1	main_slash	7	advance_on_keypress_SLASH	96	stimuli_distractor_diamondtriangles.svg	stimuli_target_squaretriangles.svg	15	yes	57	0	670
6.6.1	win	2022-12-14	13:50:55	13:56:02	306279	56259489ed6e5a0005c80fde	179660739	1	main_slash	7	main_slash	97	stimuli_target_squarediamonds.svg	stimuli_distractor_trianglediamonds.svg	4	yes	53	1	833
6.6.1	win	2022-12-14	13:50:55	13:56:02	306279	56259489ed6e5a0005c80fde	179660739	1	main_slash	7	advance_on_keypress_SLASH	98	stimuli_target_squarediamonds.svg	stimuli_distractor_trianglediamonds.svg	4	yes	57	0	555
6.6.1	win	2022-12-14	13:50:55	13:56:05	308496	56259489ed6e5a0005c80fde	179660739	1	main_slash	7	main_slash	99	stimuli_target_diamondcircles.svg	stimuli_distractor_trianglediamonds.svg	19	yes	53	1	1016
6.6.1	win	2022-12-14	13:50:55	13:56:05	308496	56259489ed6e5a0005c80fde	179660739	1	main_slash	7	advance_on_keypress_SLASH	100	stimuli_target_diamondcircles.svg	stimuli_distractor_trianglediamonds.svg	19	yes	57	0	2113
6.6.1	win	2022-12-14	13:50:55	13:56:08	312067	56259489ed6e5a0005c80fde	179660739	1	main_slash	7	main_slash	101	stimuli_target_diamondsquares.svg	stimuli_distractor_trianglediamonds.svg	20	yes	53	1	803
6.6.1	win	2022-12-14	13:50:55	13:56:08	312067	56259489ed6e5a0005c80fde	179660739	1	main_slash	7	advance_on_keypress_SLASH	102	stimuli_target_diamondsquares.svg	stimuli_distractor_trianglediamonds.svg	20	yes	57	0	598
6.6.1	win	2022-12-14	13:50:55	13:56:10	314220	56259489ed6e5a0005c80fde	179660739	1	main_slash	7	main_slash	103	stimuli_distractor_diamondtriangles.svg	stimuli_target_squarediamonds.svg	16	yes	53	1	905
6.6.1	win	2022-12-14	13:50:55	13:56:10	314220	56259489ed6e5a0005c80fde	179660739	1	main_slash	7	advance_on_keypress_SLASH	104	stimuli_distractor_diamondtriangles.svg	stimuli_target_squarediamonds.svg	16	yes	57	0	715
6.6.1	win	2022-12-14	13:50:55	13:56:13	316572	56259489ed6e5a0005c80fde	179660739	1	main_slash	7	main_slash	105	stimuli_distractor_trianglediamonds.svg	stimuli_target_trianglesquares.svg	26	yes	53	1	989
6.6.1	win	2022-12-14	13:50:55	13:56:13	316572	56259489ed6e5a0005c80fde	179660739	1	main_slash	7	advance_on_keypress_SLASH	106	stimuli_distractor_trianglediamonds.svg	stimuli_target_trianglesquares.svg	26	yes	57	0	732
6.6.1	win	2022-12-14	13:50:55	13:56:15	318967	56259489ed6e5a0005c80fde	179660739	1	main_slash	7	main_slash	107	stimuli_distractor_trianglediamonds.svg	stimuli_target_circletriangles.svg	9	yes	53	1	1016
6.6.1	win	2022-12-14	13:50:55	13:56:15	318967	56259489ed6e5a0005c80fde	179660739	1	main_slash	7	advance_on_keypress_SLASH	108	stimuli_distractor_trianglediamonds.svg	stimuli_target_circletriangles.svg	9	yes	57	0	644
6.6.1	win	2022-12-14	13:50:55	13:56:18	321483	56259489ed6e5a0005c80fde	179660739	1	main_slash	7	main_slash	109	stimuli_distractor_diamondtriangles.svg	stimuli_target_circlediamonds.svg	14	yes	53	1	1233
6.6.1	win	2022-12-14	13:50:55	13:56:18	321483	56259489ed6e5a0005c80fde	179660739	1	main_slash	7	advance_on_keypress_SLASH	110	stimuli_distractor_diamondtriangles.svg	stimuli_target_circlediamonds.svg	14	yes	57	0	672
6.6.1	win	2022-12-14	13:50:55	13:56:20	323608	56259489ed6e5a0005c80fde	179660739	1	main_slash	7	main_slash	111	stimuli_target_circletriangles.svg	stimuli_distractor_diamondtriangles.svg	5	yes	53	1	807
6.6.1	win	2022-12-14	13:50:55	13:56:20	323608	56259489ed6e5a0005c80fde	179660739	1	main_slash	7	advance_on_keypress_SLASH	112	stimuli_target_circletriangles.svg	stimuli_distractor_diamondtriangles.svg	5	yes	57	0	764
6.6.1	win	2022-12-14	13:50:55	13:56:22	326009	56259489ed6e5a0005c80fde	179660739	1	main_slash	7	main_slash	113	stimuli_distractor_diamondtriangles.svg	stimuli_target_trianglesquares.svg	30	yes	53	1	990
6.6.1	win	2022-12-14	13:50:55	13:56:22	326009	56259489ed6e5a0005c80fde	179660739	1	main_slash	7	advance_on_keypress_SLASH	114	stimuli_distractor_diamondtriangles.svg	stimuli_target_trianglesquares.svg	30	yes	57	0	2327
6.6.1	win	2022-12-14	13:50:55	13:56:26	329759	56259489ed6e5a0005c80fde	179660739	1	main_slash	7	main_slash	115	stimuli_distractor_trianglediamonds.svg	stimuli_target_trianglecircles.svg	25	yes	53	1	789
6.6.1	win	2022-12-14	13:50:55	13:56:26	329759	56259489ed6e5a0005c80fde	179660739	1	main_slash	7	advance_on_keypress_SLASH	116	stimuli_distractor_trianglediamonds.svg	stimuli_target_trianglecircles.svg	25	yes	57	0	564
6.6.1	win	2022-12-14	13:50:55	13:56:28	331771	56259489ed6e5a0005c80fde	179660739	1	main_slash	7	main_slash	117	stimuli_distractor_diamondtriangles.svg	stimuli_target_circletriangles.svg	13	yes	53	1	799
6.6.1	win	2022-12-14	13:50:55	13:56:28	331771	56259489ed6e5a0005c80fde	179660739	1	main_slash	7	advance_on_keypress_SLASH	118	stimuli_distractor_diamondtriangles.svg	stimuli_target_circletriangles.svg	13	yes	57	0	632
6.6.1	win	2022-12-14	13:50:55	13:56:30	333825	56259489ed6e5a0005c80fde	179660739	1	main_slash	7	main_slash	119	stimuli_target_squarediamonds.svg	stimuli_distractor_diamondtriangles.svg	8	yes	53	1	769
6.6.1	win	2022-12-14	13:50:55	13:56:30	333825	56259489ed6e5a0005c80fde	179660739	1	main_slash	7	advance_on_keypress_SLASH	120	stimuli_target_squarediamonds.svg	stimuli_distractor_diamondtriangles.svg	8	yes	57	0	716
6.6.1	win	2022-12-14	13:50:55	13:56:33	337190	56259489ed6e5a0005c80fde	179660739	1	main_slash	7	main_slash	121	stimuli_distractor_trianglediamonds.svg	stimuli_distractor_diamondtriangles.svg	35	no	0	1	2000
6.6.1	win	2022-12-14	13:50:55	13:56:33	337190	56259489ed6e5a0005c80fde	179660739	1	main_slash	7	advance_on_keypress_SLASH	122	stimuli_distractor_trianglediamonds.svg	stimuli_distractor_diamondtriangles.svg	35	no	57	0	555
6.6.1	win	2022-12-14	13:50:55	13:56:37	340391	56259489ed6e5a0005c80fde	179660739	1	main_slash	7	main_slash	123	stimuli_distractor_trianglediamonds.svg	stimuli_distractor_trianglediamonds.svg	33	no	0	1	2000
6.6.1	win	2022-12-14	13:50:55	13:56:37	340391	56259489ed6e5a0005c80fde	179660739	1	main_slash	7	advance_on_keypress_SLASH	124	stimuli_distractor_trianglediamonds.svg	stimuli_distractor_trianglediamonds.svg	33	no	57	0	410
6.6.1	win	2022-12-14	13:50:55	13:56:38	342285	56259489ed6e5a0005c80fde	179660739	1	main_slash	7	main_slash	125	stimuli_target_trianglecircles.svg	stimuli_distractor_trianglediamonds.svg	17	yes	53	1	842
6.6.1	win	2022-12-14	13:50:55	13:56:38	342285	56259489ed6e5a0005c80fde	179660739	1	main_slash	7	advance_on_keypress_SLASH	126	stimuli_target_trianglecircles.svg	stimuli_distractor_trianglediamonds.svg	17	yes	57	0	487
6.6.1	win	2022-12-14	13:50:55	13:56:41	344422	56259489ed6e5a0005c80fde	179660739	1	main_slash	7	main_slash	127	stimuli_distractor_trianglediamonds.svg	stimuli_target_diamondsquares.svg	28	yes	53	1	1012
6.6.1	win	2022-12-14	13:50:55	13:56:41	344422	56259489ed6e5a0005c80fde	179660739	1	main_slash	7	advance_on_keypress_SLASH	128	stimuli_distractor_trianglediamonds.svg	stimuli_target_diamondsquares.svg	28	yes	57	0	680
6.6.1	win	2022-12-14	13:50:55	13:56:44	347761	56259489ed6e5a0005c80fde	179660739	1	main_slash	7	main_slash	129	stimuli_distractor_trianglediamonds.svg	stimuli_distractor_diamondtriangles.svg	36	no	0	1	2000
6.6.1	win	2022-12-14	13:50:55	13:56:44	347761	56259489ed6e5a0005c80fde	179660739	1	main_slash	7	advance_on_keypress_SLASH	130	stimuli_distractor_trianglediamonds.svg	stimuli_distractor_diamondtriangles.svg	36	no	57	0	328
6.6.1	win	2022-12-14	13:50:55	13:56:46	349534	56259489ed6e5a0005c80fde	179660739	1	main_slash	7	main_slash	131	stimuli_distractor_trianglediamonds.svg	stimuli_target_circlediamonds.svg	10	yes	53	1	789
6.6.1	win	2022-12-14	13:50:55	13:56:46	349534	56259489ed6e5a0005c80fde	179660739	1	main_slash	7	advance_on_keypress_SLASH	132	stimuli_distractor_trianglediamonds.svg	stimuli_target_circlediamonds.svg	10	yes	57	0	593
6.6.1	win	2022-12-14	13:50:55	13:56:48	351615	56259489ed6e5a0005c80fde	179660739	1	main_slash	7	main_slash	133	stimuli_distractor_trianglediamonds.svg	stimuli_target_squarediamonds.svg	12	yes	53	1	852
6.6.1	win	2022-12-14	13:50:55	13:56:48	351615	56259489ed6e5a0005c80fde	179660739	1	main_slash	7	advance_on_keypress_SLASH	134	stimuli_distractor_trianglediamonds.svg	stimuli_target_squarediamonds.svg	12	yes	57	0	677
6.6.1	win	2022-12-14	13:50:55	13:56:51	354930	56259489ed6e5a0005c80fde	179660739	1	main_slash	7	main_slash	135	stimuli_distractor_diamondtriangles.svg	stimuli_distractor_trianglediamonds.svg	37	no	0	1	2000
6.6.1	win	2022-12-14	13:50:55	13:56:51	354930	56259489ed6e5a0005c80fde	179660739	1	main_slash	7	advance_on_keypress_SLASH	136	stimuli_distractor_diamondtriangles.svg	stimuli_distractor_trianglediamonds.svg	37	no	57	0	373
6.6.1	win	2022-12-14	13:50:55	13:56:54	357948	56259489ed6e5a0005c80fde	179660739	1	main_slash	7	main_slash	137	stimuli_distractor_diamondtriangles.svg	stimuli_distractor_diamondtriangles.svg	40	no	0	1	2000
6.6.1	win	2022-12-14	13:50:55	13:56:54	357948	56259489ed6e5a0005c80fde	179660739	1	main_slash	7	advance_on_keypress_SLASH	138	stimuli_distractor_diamondtriangles.svg	stimuli_distractor_diamondtriangles.svg	40	no	57	0	339
6.6.1	win	2022-12-14	13:50:55	13:56:56	359649	56259489ed6e5a0005c80fde	179660739	1	main_slash	7	main_slash	139	stimuli_distractor_diamondtriangles.svg	stimuli_target_trianglecircles.svg	29	yes	53	1	716
6.6.1	win	2022-12-14	13:50:55	13:56:56	359649	56259489ed6e5a0005c80fde	179660739	1	main_slash	7	advance_on_keypress_SLASH	140	stimuli_distractor_diamondtriangles.svg	stimuli_target_trianglecircles.svg	29	yes	57	0	540
6.6.1	win	2022-12-14	13:50:55	13:56:58	361716	56259489ed6e5a0005c80fde	179660739	1	main_slash	7	main_slash	141	stimuli_target_squaretriangles.svg	stimuli_distractor_diamondtriangles.svg	7	yes	53	1	882
6.6.1	win	2022-12-14	13:50:55	13:56:58	361716	56259489ed6e5a0005c80fde	179660739	1	main_slash	7	advance_on_keypress_SLASH	142	stimuli_target_squaretriangles.svg	stimuli_distractor_diamondtriangles.svg	7	yes	57	0	497
6.6.1	win	2022-12-14	13:50:55	13:57:00	363854	56259489ed6e5a0005c80fde	179660739	1	main_slash	7	main_slash	143	stimuli_target_diamondcircles.svg	stimuli_distractor_diamondtriangles.svg	23	yes	53	1	987
6.6.1	win	2022-12-14	13:50:55	13:57:00	363854	56259489ed6e5a0005c80fde	179660739	1	main_slash	7	advance_on_keypress_SLASH	144	stimuli_target_diamondcircles.svg	stimuli_distractor_diamondtriangles.svg	23	yes	57	0	675
6.6.1	win	2022-12-14	13:50:55	13:57:03	367168	56259489ed6e5a0005c80fde	179660739	1	main_slash	7	main_slash	145	stimuli_distractor_diamondtriangles.svg	stimuli_distractor_trianglediamonds.svg	38	no	0	1	2000
6.6.1	win	2022-12-14	13:50:55	13:57:03	367168	56259489ed6e5a0005c80fde	179660739	1	main_slash	7	advance_on_keypress_SLASH	146	stimuli_distractor_diamondtriangles.svg	stimuli_distractor_trianglediamonds.svg	38	no	57	0	457
6.6.1	win	2022-12-14	13:50:55	13:57:05	369125	56259489ed6e5a0005c80fde	179660739	1	main_slash	7	main_slash	147	stimuli_target_squaretriangles.svg	stimuli_distractor_trianglediamonds.svg	3	yes	53	1	855
6.6.1	win	2022-12-14	13:50:55	13:57:05	369125	56259489ed6e5a0005c80fde	179660739	1	main_slash	7	advance_on_keypress_SLASH	148	stimuli_target_squaretriangles.svg	stimuli_distractor_trianglediamonds.svg	3	yes	57	0	507
6.6.1	win	2022-12-14	13:50:55	13:57:08	372270	56259489ed6e5a0005c80fde	179660739	1	main_slash	7	main_slash	149	stimuli_distractor_diamondtriangles.svg	stimuli_distractor_diamondtriangles.svg	39	no	0	1	2000
6.6.1	win	2022-12-14	13:50:55	13:57:08	372270	56259489ed6e5a0005c80fde	179660739	1	main_slash	7	advance_on_keypress_SLASH	150	stimuli_distractor_diamondtriangles.svg	stimuli_distractor_diamondtriangles.svg	39	no	57	0	335
6.6.1	win	2022-12-14	13:50:55	13:57:10	373819	56259489ed6e5a0005c80fde	179660739	1	main_slash	7	main_slash	151	stimuli_distractor_diamondtriangles.svg	stimuli_target_diamondsquares.svg	32	yes	53	1	565
6.6.1	win	2022-12-14	13:50:55	13:57:10	373819	56259489ed6e5a0005c80fde	179660739	1	main_slash	7	advance_on_keypress_SLASH	152	stimuli_distractor_diamondtriangles.svg	stimuli_target_diamondsquares.svg	32	yes	57	0	529
6.6.1	win	2022-12-14	13:50:55	13:57:13	377005	56259489ed6e5a0005c80fde	179660739	1	main_slash	7	main_slash	153	stimuli_distractor_trianglediamonds.svg	stimuli_distractor_trianglediamonds.svg	34	no	0	1	2000
6.6.1	win	2022-12-14	13:50:55	13:57:13	377005	56259489ed6e5a0005c80fde	179660739	1	main_slash	7	advance_on_keypress_SLASH	154	stimuli_distractor_trianglediamonds.svg	stimuli_distractor_trianglediamonds.svg	34	no	57	0	282
6.6.1	win	2022-12-14	13:50:55	13:57:15	378652	56259489ed6e5a0005c80fde	179660739	1	main_slash	7	main_slash	155	stimuli_target_trianglesquares.svg	stimuli_distractor_diamondtriangles.svg	22	yes	53	1	712
6.6.1	win	2022-12-14	13:50:55	13:57:15	378652	56259489ed6e5a0005c80fde	179660739	1	main_slash	7	advance_on_keypress_SLASH	156	stimuli_target_trianglesquares.svg	stimuli_distractor_diamondtriangles.svg	22	yes	57	0	552
6.6.1	win	2022-12-14	13:50:55	13:57:17	380794	56259489ed6e5a0005c80fde	179660739	1	main_slash	7	main_slash	157	stimuli_distractor_trianglediamonds.svg	stimuli_target_diamondcircles.svg	27	yes	53	1	953
6.6.1	win	2022-12-14	13:50:55	13:57:17	380794	56259489ed6e5a0005c80fde	179660739	1	main_slash	7	advance_on_keypress_SLASH	158	stimuli_distractor_trianglediamonds.svg	stimuli_target_diamondcircles.svg	27	yes	57	0	681
6.6.1	win	2022-12-14	13:50:55	13:57:19	382969	56259489ed6e5a0005c80fde	179660739	1	main_slash	7	main_slash	159	stimuli_target_trianglecircles.svg	stimuli_distractor_diamondtriangles.svg	21	yes	53	1	845
6.6.1	win	2022-12-14	13:50:55	13:57:19	382969	56259489ed6e5a0005c80fde	179660739	1	main_slash	7	advance_on_keypress_SLASH	160	stimuli_target_trianglecircles.svg	stimuli_distractor_diamondtriangles.svg	21	yes	57	0	582
6.6.1	win	2022-12-14	13:50:55	13:57:19	382969	56259489ed6e5a0005c80fde	179660739	1	inst_12_SLASH_practice2	8			stimuli_target_trianglecircles.svg	stimuli_distractor_diamondtriangles.svg	21	yes	Ctrl+'Q'		