build	computer.platform	date	time	timestamp	time_elapsed_ms	subject	group	session	blockcode	blocknum	trialcode	trialnum	stimulus_left	stimulus_right	stim_index	target_present	response	correct	latency
6.6.1	win	2022-12-14	17:32:11	17:35:43	209238	6168ace1ef0f716f56f08f5b	904395170	1	practice_z	5	practice_z	1	stimuli_distractor_trianglediamonds.svg	stimuli_distractor_trianglediamonds.svg	15	no	0	1	2000
6.6.1	win	2022-12-14	17:32:11	17:35:43	209238	6168ace1ef0f716f56f08f5b	904395170	1	practice_z	5	advance_on_keypress_ZEE	2	stimuli_distractor_trianglediamonds.svg	stimuli_distractor_trianglediamonds.svg	15	no	57	0	4326
6.6.1	win	2022-12-14	17:32:11	17:35:51	217237	6168ace1ef0f716f56f08f5b	904395170	1	practice_z	5	practice_z	3	stimuli_distractor_trianglediamonds.svg	stimuli_distractor_diamondtriangles.svg	16	no	0	1	2000
6.6.1	win	2022-12-14	17:32:11	17:35:51	217237	6168ace1ef0f716f56f08f5b	904395170	1	practice_z	5	advance_on_keypress_ZEE	4	stimuli_distractor_trianglediamonds.svg	stimuli_distractor_diamondtriangles.svg	16	no	57	0	630
6.6.1	win	2022-12-14	17:32:11	17:35:55	221521	6168ace1ef0f716f56f08f5b	904395170	1	practice_z	5	practice_z	5	stimuli_target_squarediamonds.svg	stimuli_distractor_trianglediamonds.svg	5	yes	0	0	2000
6.6.1	win	2022-12-14	17:32:11	17:35:55	221521	6168ace1ef0f716f56f08f5b	904395170	1	practice_z	5	advance_on_keypress_ZEE	6	stimuli_target_squarediamonds.svg	stimuli_distractor_trianglediamonds.svg	5	yes	57	0	1134
6.6.1	win	2022-12-14	17:32:11	17:36:00	226304	6168ace1ef0f716f56f08f5b	904395170	1	practice_z	5	practice_z	7	stimuli_distractor_diamondtriangles.svg	stimuli_distractor_diamondtriangles.svg	13	no	0	1	2000
6.6.1	win	2022-12-14	17:32:11	17:36:00	226304	6168ace1ef0f716f56f08f5b	904395170	1	practice_z	5	advance_on_keypress_ZEE	8	stimuli_distractor_diamondtriangles.svg	stimuli_distractor_diamondtriangles.svg	13	no	57	0	410
6.6.1	win	2022-12-14	17:32:11	17:36:04	230353	6168ace1ef0f716f56f08f5b	904395170	1	practice_z	5	practice_z	9	stimuli_distractor_diamondtriangles.svg	stimuli_distractor_trianglediamonds.svg	14	no	0	1	2000
6.6.1	win	2022-12-14	17:32:11	17:36:04	230353	6168ace1ef0f716f56f08f5b	904395170	1	practice_z	5	advance_on_keypress_ZEE	10	stimuli_distractor_diamondtriangles.svg	stimuli_distractor_trianglediamonds.svg	14	no	57	0	853
6.6.1	win	2022-12-14	17:32:11	17:36:08	234854	6168ace1ef0f716f56f08f5b	904395170	1	practice_z	5	practice_z	11	stimuli_target_circlediamonds.svg	stimuli_distractor_diamondtriangles.svg	1	yes	0	0	2000
6.6.1	win	2022-12-14	17:32:11	17:36:08	234854	6168ace1ef0f716f56f08f5b	904395170	1	practice_z	5	advance_on_keypress_ZEE	12	stimuli_target_circlediamonds.svg	stimuli_distractor_diamondtriangles.svg	1	yes	57	0	1522
6.6.1	win	2022-12-14	17:32:11	17:36:13	240020	6168ace1ef0f716f56f08f5b	904395170	1	practice_z	5	practice_z	13	stimuli_target_circlediamonds.svg	stimuli_distractor_trianglediamonds.svg	4	yes	0	0	2000
6.6.1	win	2022-12-14	17:32:11	17:36:13	240020	6168ace1ef0f716f56f08f5b	904395170	1	practice_z	5	advance_on_keypress_ZEE	14	stimuli_target_circlediamonds.svg	stimuli_distractor_trianglediamonds.svg	4	yes	57	0	1344
6.6.1	win	2022-12-14	17:32:11	17:36:18	245019	6168ace1ef0f716f56f08f5b	904395170	1	practice_z	5	practice_z	15	stimuli_distractor_diamondtriangles.svg	stimuli_target_diamondcircles.svg	8	yes	0	0	2000
6.6.1	win	2022-12-14	17:32:11	17:36:18	245019	6168ace1ef0f716f56f08f5b	904395170	1	practice_z	5	advance_on_keypress_ZEE	16	stimuli_distractor_diamondtriangles.svg	stimuli_target_diamondcircles.svg	8	yes	57	0	127
6.6.1	win	2022-12-14	17:32:11	17:36:22	248803	6168ace1ef0f716f56f08f5b	904395170	1	practice_z	5	practice_z	17	stimuli_target_diamondsquares.svg	stimuli_distractor_diamondtriangles.svg	3	yes	0	0	2000
6.6.1	win	2022-12-14	17:32:11	17:36:22	248803	6168ace1ef0f716f56f08f5b	904395170	1	practice_z	5	advance_on_keypress_ZEE	18	stimuli_target_diamondsquares.svg	stimuli_distractor_diamondtriangles.svg	3	yes	57	0	586
6.6.1	win	2022-12-14	17:32:11	17:36:26	253036	6168ace1ef0f716f56f08f5b	904395170	1	practice_z	5	practice_z	19	stimuli_distractor_trianglediamonds.svg	stimuli_target_squarediamonds.svg	11	yes	0	0	2000
6.6.1	win	2022-12-14	17:32:11	17:36:26	253036	6168ace1ef0f716f56f08f5b	904395170	1	practice_z	5	advance_on_keypress_ZEE	20	stimuli_distractor_trianglediamonds.svg	stimuli_target_squarediamonds.svg	11	yes	57	0	405
6.6.1	win	2022-12-14	17:32:11	17:36:30	257103	6168ace1ef0f716f56f08f5b	904395170	1	practice_z	5	practice_z	21	stimuli_distractor_diamondtriangles.svg	stimuli_target_trianglecircles.svg	9	yes	0	0	2000
6.6.1	win	2022-12-14	17:32:11	17:36:30	257103	6168ace1ef0f716f56f08f5b	904395170	1	practice_z	5	advance_on_keypress_ZEE	22	stimuli_distractor_diamondtriangles.svg	stimuli_target_trianglecircles.svg	9	yes	57	0	807
6.6.1	win	2022-12-14	17:32:11	17:36:35	261569	6168ace1ef0f716f56f08f5b	904395170	1	practice_z	5	practice_z	23	stimuli_distractor_diamondtriangles.svg	stimuli_target_circletriangles.svg	7	yes	0	0	2000
6.6.1	win	2022-12-14	17:32:11	17:36:35	261569	6168ace1ef0f716f56f08f5b	904395170	1	practice_z	5	advance_on_keypress_ZEE	24	stimuli_distractor_diamondtriangles.svg	stimuli_target_circletriangles.svg	7	yes	57	0	1214
6.6.1	win	2022-12-14	17:32:11	17:36:40	266435	6168ace1ef0f716f56f08f5b	904395170	1	practice_z	5	practice_z	25	stimuli_target_diamondsquares.svg	stimuli_distractor_trianglediamonds.svg	6	yes	0	0	2000
6.6.1	win	2022-12-14	17:32:11	17:36:40	266435	6168ace1ef0f716f56f08f5b	904395170	1	practice_z	5	advance_on_keypress_ZEE	26	stimuli_target_diamondsquares.svg	stimuli_distractor_trianglediamonds.svg	6	yes	Ctrl+'Q'	1	4468