subject	block	trialnum	DL_leftSound	DL_rightSound	DL_dualSound	DL_choice	response	correct	rt
5d1c92bc5f54410001ef8f0c	headphonecheck_testphase	3	NA	NA	0	NA	third	1	463
5d1c92bc5f54410001ef8f0c	headphonecheck_testphase	6	NA	NA	0	NA	first	1	215
5d1c92bc5f54410001ef8f0c	headphonecheck_testphase	9	NA	NA	0	NA	second	1	373
5d1c92bc5f54410001ef8f0c	headphonecheck_testphase	12	NA	NA	0	NA	first	1	234
5d1c92bc5f54410001ef8f0c	headphonecheck_testphase	15	NA	NA	0	NA	third	1	142
5d1c92bc5f54410001ef8f0c	headphonecheck_testphase	18	NA	NA	0	NA	second	1	218
5d1c92bc5f54410001ef8f0c	stereocheck_testphase	3	NA	NA	0	NA	stereocheck_right	1	1258
5d1c92bc5f54410001ef8f0c	stereocheck_testphase	6	NA	NA	0	NA	stereocheck_left	1	411
5d1c92bc5f54410001ef8f0c	stereocheck_testphase	9	NA	NA	0	NA	stereocheck_left	1	251
5d1c92bc5f54410001ef8f0c	stereocheck_testphase	12	NA	NA	0	NA	stereocheck_right	1	328
5d1c92bc5f54410001ef8f0c	stereocheck_testphase	15	NA	NA	0	NA	stereocheck_left	1	231
5d1c92bc5f54410001ef8f0c	stereocheck_testphase	18	NA	NA	0	NA	stereocheck_right	1	889
5d1c92bc5f54410001ef8f0c	DL_practice	2	ga	ga	0	left	ga	1	1048
5d1c92bc5f54410001ef8f0c	DL_practice	3	ta	ta	0	left	ta	1	1087
5d1c92bc5f54410001ef8f0c	DL_practice	4	da	da	0	left	da	1	1101
5d1c92bc5f54410001ef8f0c	DL_practice	5	ga	ta	1	right	ta	1	4196
5d1c92bc5f54410001ef8f0c	DL_practice	6	da	ba	1	left	da	1	1352
5d1c92bc5f54410001ef8f0c	DL_practice	7	pa	pa	0	left	pa	1	1088
5d1c92bc5f54410001ef8f0c	DL_practice	8	ba	ba	0	left	ba	1	945
5d1c92bc5f54410001ef8f0c	DL_practice	9	ka	pa	1	left	ka	1	1346
5d1c92bc5f54410001ef8f0c	DL_practice	10	ka	ka	0	left	ka	1	874
5d1c92bc5f54410001ef8f0c	DL_test	1	ta	ka	1	right	ka	1	1069
5d1c92bc5f54410001ef8f0c	DL_test	2	ga	ka	1	right	ka	1	746
5d1c92bc5f54410001ef8f0c	DL_test	3	da	ka	1	other	pa	0	807
5d1c92bc5f54410001ef8f0c	DL_test	4	ta	ta	0	left	ta	1	585
5d1c92bc5f54410001ef8f0c	DL_test	5	ga	ta	1	other	ka	0	1499
5d1c92bc5f54410001ef8f0c	DL_test	6	pa	ba	1	left	pa	1	775
5d1c92bc5f54410001ef8f0c	DL_test	7	ka	pa	1	right	pa	1	1093
5d1c92bc5f54410001ef8f0c	DL_test	8	ta	ga	1	other	ba	0	1046
5d1c92bc5f54410001ef8f0c	DL_test	9	pa	da	1	left	pa	1	1263
5d1c92bc5f54410001ef8f0c	DL_test	10	ka	da	1	other	ta	0	1749
5d1c92bc5f54410001ef8f0c	DL_test	11	da	ba	1	right	ba	1	1019
5d1c92bc5f54410001ef8f0c	DL_test	12	ta	ba	1	right	ba	1	1218
5d1c92bc5f54410001ef8f0c	DL_test	13	pa	ka	1	left	pa	1	682
5d1c92bc5f54410001ef8f0c	DL_test	14	da	ta	1	right	ta	1	956
5d1c92bc5f54410001ef8f0c	DL_test	15	da	ga	1	left	da	1	1009
5d1c92bc5f54410001ef8f0c	DL_test	16	ga	ga	0	other	da	0	1332
5d1c92bc5f54410001ef8f0c	DL_test	17	ka	ba	1	other	ta	0	1056
5d1c92bc5f54410001ef8f0c	DL_test	18	da	da	0	left	da	1	881
5d1c92bc5f54410001ef8f0c	DL_test	19	pa	ta	1	right	ta	1	972
5d1c92bc5f54410001ef8f0c	DL_test	20	ba	pa	1	right	pa	1	907
5d1c92bc5f54410001ef8f0c	DL_test	21	pa	pa	0	left	pa	1	718
5d1c92bc5f54410001ef8f0c	DL_test	22	ba	da	1	right	da	1	825
5d1c92bc5f54410001ef8f0c	DL_test	23	ga	pa	1	right	pa	1	703
5d1c92bc5f54410001ef8f0c	DL_test	24	pa	ga	1	other	da	0	1249
5d1c92bc5f54410001ef8f0c	DL_test	25	ka	ka	0	left	ka	1	1057
5d1c92bc5f54410001ef8f0c	DL_test	26	ta	da	1	left	ta	1	940
5d1c92bc5f54410001ef8f0c	DL_test	27	ga	da	1	right	da	1	1168
5d1c92bc5f54410001ef8f0c	DL_test	28	ga	ba	1	right	ba	1	1263
5d1c92bc5f54410001ef8f0c	DL_test	29	da	pa	1	right	pa	1	1805
5d1c92bc5f54410001ef8f0c	DL_test	30	ba	ga	1	other	da	0	1262
5d1c92bc5f54410001ef8f0c	DL_test	31	ba	ba	0	left	ba	1	1826
5d1c92bc5f54410001ef8f0c	DL_test	32	ta	pa	1	left	ta	1	1260
5d1c92bc5f54410001ef8f0c	DL_test	33	ba	ka	1	right	ka	1	1035
5d1c92bc5f54410001ef8f0c	DL_test	34	ka	ga	1	other	ta	0	2066
5d1c92bc5f54410001ef8f0c	DL_test	35	ba	ta	1	other	ka	0	1651
5d1c92bc5f54410001ef8f0c	DL_test	36	ka	ta	1	left	ka	1	598
5d1c92bc5f54410001ef8f0c	DL_test	1	ba	pa	1	right	pa	1	876
5d1c92bc5f54410001ef8f0c	DL_test	2	ka	pa	1	left	ka	1	1623
5d1c92bc5f54410001ef8f0c	DL_test	3	ba	ga	1	other	da	0	1186
5d1c92bc5f54410001ef8f0c	DL_test	4	ga	ba	1	right	ba	1	1540
5d1c92bc5f54410001ef8f0c	DL_test	5	ka	ta	1	left	ka	1	2242
5d1c92bc5f54410001ef8f0c	DL_test	6	da	ta	1	right	ta	1	815
5d1c92bc5f54410001ef8f0c	DL_test	7	ka	da	1	other	ta	0	1153
5d1c92bc5f54410001ef8f0c	DL_test	8	ta	ga	1	right	ga	1	920
5d1c92bc5f54410001ef8f0c	DL_test	9	da	ga	1	left	da	1	797
5d1c92bc5f54410001ef8f0c	DL_test	10	ga	ta	1	other	ka	0	909
5d1c92bc5f54410001ef8f0c	DL_test	11	ta	pa	1	right	pa	1	846
5d1c92bc5f54410001ef8f0c	DL_test	12	ka	ba	1	other	pa	0	1045
5d1c92bc5f54410001ef8f0c	DL_test	13	pa	pa	0	left	pa	1	742
5d1c92bc5f54410001ef8f0c	DL_test	14	ga	pa	1	right	pa	1	1001
5d1c92bc5f54410001ef8f0c	DL_test	15	pa	ta	1	right	ta	1	1116
5d1c92bc5f54410001ef8f0c	DL_test	16	da	ba	1	right	ba	1	1266
5d1c92bc5f54410001ef8f0c	DL_test	17	pa	ka	1	right	ka	1	1887
5d1c92bc5f54410001ef8f0c	DL_test	18	ba	da	1	right	da	1	984
5d1c92bc5f54410001ef8f0c	DL_test	19	ta	ka	1	right	ka	1	1076
5d1c92bc5f54410001ef8f0c	DL_test	20	ba	ta	1	other	ka	0	917
5d1c92bc5f54410001ef8f0c	DL_test	21	pa	ba	1	left	pa	1	1202
5d1c92bc5f54410001ef8f0c	DL_test	22	ta	da	1	left	ta	1	712
5d1c92bc5f54410001ef8f0c	DL_test	23	ba	ba	0	left	ba	1	2516
5d1c92bc5f54410001ef8f0c	DL_test	24	ga	ga	0	left	ga	1	1624
5d1c92bc5f54410001ef8f0c	DL_test	25	pa	da	1	left	pa	1	1342
5d1c92bc5f54410001ef8f0c	DL_test	26	da	pa	1	right	pa	1	1164
5d1c92bc5f54410001ef8f0c	DL_test	27	ga	da	1	right	da	1	909
5d1c92bc5f54410001ef8f0c	DL_test	28	pa	ga	1	other	ba	0	957
5d1c92bc5f54410001ef8f0c	DL_test	29	ga	ka	1	right	ka	1	1014
5d1c92bc5f54410001ef8f0c	DL_test	30	da	da	0	left	da	1	1198
5d1c92bc5f54410001ef8f0c	DL_test	31	ba	ka	1	right	ka	1	1840
5d1c92bc5f54410001ef8f0c	DL_test	32	ta	ta	0	left	ta	1	1099
5d1c92bc5f54410001ef8f0c	DL_test	33	ta	ba	1	right	ba	1	1467
5d1c92bc5f54410001ef8f0c	DL_test	34	ka	ga	1	left	ka	1	1992
5d1c92bc5f54410001ef8f0c	DL_test	35	ka	ka	0	left	ka	1	2786
5d1c92bc5f54410001ef8f0c	DL_test	36	da	ka	1	other	pa	0	1593
5d1c92bc5f54410001ef8f0c	DL_test	1	ba	da	1	left	ba	1	1230
5d1c92bc5f54410001ef8f0c	DL_test	2	ta	pa	1	right	pa	1	1346
5d1c92bc5f54410001ef8f0c	DL_test	3	ga	ka	1	right	ka	1	1280
5d1c92bc5f54410001ef8f0c	DL_test	4	da	pa	1	other	ba	0	2341
5d1c92bc5f54410001ef8f0c	DL_test	5	pa	ka	1	left	pa	1	1675
5d1c92bc5f54410001ef8f0c	DL_test	6	da	da	0	left	da	1	882
5d1c92bc5f54410001ef8f0c	DL_test	7	ba	ba	0	left	ba	1	1483
5d1c92bc5f54410001ef8f0c	DL_test	8	pa	ga	1	left	pa	1	1090
5d1c92bc5f54410001ef8f0c	DL_test	9	pa	da	1	right	da	1	923
5d1c92bc5f54410001ef8f0c	DL_test	10	ka	ka	0	left	ka	1	973
5d1c92bc5f54410001ef8f0c	DL_test	11	ga	da	1	right	da	1	1014
5d1c92bc5f54410001ef8f0c	DL_test	12	da	ba	1	right	ba	1	743
5d1c92bc5f54410001ef8f0c	DL_test	13	ta	ga	1	right	ga	1	952
5d1c92bc5f54410001ef8f0c	DL_test	14	ga	ta	1	other	ka	0	697
5d1c92bc5f54410001ef8f0c	DL_test	15	ka	ta	1	left	ka	1	884
5d1c92bc5f54410001ef8f0c	DL_test	16	da	ka	1	other	pa	0	782
5d1c92bc5f54410001ef8f0c	DL_test	17	ta	ta	0	left	ta	1	808
5d1c92bc5f54410001ef8f0c	DL_test	18	ba	ga	1	other	da	0	980
5d1c92bc5f54410001ef8f0c	DL_test	19	ta	ba	1	other	pa	0	1635
5d1c92bc5f54410001ef8f0c	DL_test	20	ka	ba	1	left	ka	1	1269
5d1c92bc5f54410001ef8f0c	DL_test	21	ga	ba	1	right	ba	1	1449
5d1c92bc5f54410001ef8f0c	DL_test	22	da	ta	1	other	ka	0	2108
5d1c92bc5f54410001ef8f0c	DL_test	23	pa	ba	1	left	pa	1	1212
5d1c92bc5f54410001ef8f0c	DL_test	24	pa	pa	0	left	pa	1	1202
5d1c92bc5f54410001ef8f0c	DL_test	25	ka	pa	1	left	ka	1	1993
5d1c92bc5f54410001ef8f0c	DL_test	26	pa	ta	1	right	ta	1	1267
5d1c92bc5f54410001ef8f0c	DL_test	27	ga	ga	0	left	ga	1	959
5d1c92bc5f54410001ef8f0c	DL_test	28	ba	ka	1	right	ka	1	1458
5d1c92bc5f54410001ef8f0c	DL_test	29	ta	ka	1	right	ka	1	682
5d1c92bc5f54410001ef8f0c	DL_test	30	ka	da	1	right	da	1	1120
5d1c92bc5f54410001ef8f0c	DL_test	31	ba	ta	1	right	ta	1	1852
5d1c92bc5f54410001ef8f0c	DL_test	32	ta	da	1	right	da	1	1980
5d1c92bc5f54410001ef8f0c	DL_test	33	ka	ga	1	left	ka	1	1773
5d1c92bc5f54410001ef8f0c	DL_test	34	ba	pa	1	right	pa	1	994
5d1c92bc5f54410001ef8f0c	DL_test	35	da	ga	1	left	da	1	726
5d1c92bc5f54410001ef8f0c	DL_test	36	ga	pa	1	right	pa	1	1106
5d1c92bc5f54410001ef8f0c	DL_test	1	ga	ka	1	right	ka	1	943
5d1c92bc5f54410001ef8f0c	DL_test	2	ba	pa	1	right	pa	1	940
5d1c92bc5f54410001ef8f0c	DL_test	3	ka	ga	1	left	ka	1	1250
5d1c92bc5f54410001ef8f0c	DL_test	4	ba	ga	1	other	da	0	896
5d1c92bc5f54410001ef8f0c	DL_test	5	ka	ta	1	left	ka	1	758
5d1c92bc5f54410001ef8f0c	DL_test	6	ba	ba	0	other	da	0	1531
5d1c92bc5f54410001ef8f0c	DL_test	7	ta	da	1	left	ta	1	985
5d1c92bc5f54410001ef8f0c	DL_test	8	da	ba	1	left	da	1	1854
5d1c92bc5f54410001ef8f0c	DL_test	9	ba	ta	1	other	ka	0	883
5d1c92bc5f54410001ef8f0c	DL_test	10	ta	ka	1	right	ka	1	761
5d1c92bc5f54410001ef8f0c	DL_test	11	da	ka	1	other	pa	0	908
5d1c92bc5f54410001ef8f0c	DL_test	12	ta	pa	1	right	pa	1	873
5d1c92bc5f54410001ef8f0c	DL_test	13	pa	pa	0	left	pa	1	620
5d1c92bc5f54410001ef8f0c	DL_test	14	ka	da	1	other	ta	0	1200
5d1c92bc5f54410001ef8f0c	DL_test	15	ga	pa	1	other	ta	0	995
5d1c92bc5f54410001ef8f0c	DL_test	16	pa	ba	1	right	ba	1	1034
5d1c92bc5f54410001ef8f0c	DL_test	17	pa	ka	1	left	pa	1	1611
5d1c92bc5f54410001ef8f0c	DL_test	18	ta	ba	1	left	ta	1	1059
5d1c92bc5f54410001ef8f0c	DL_test	19	ga	ga	0	left	ga	1	1456
5d1c92bc5f54410001ef8f0c	DL_test	20	pa	da	1	right	da	1	2934
5d1c92bc5f54410001ef8f0c	DL_test	21	ba	ka	1	right	ka	1	4798
5d1c92bc5f54410001ef8f0c	DL_test	22	ka	pa	1	right	pa	1	1796
5d1c92bc5f54410001ef8f0c	DL_test	23	ba	da	1	right	da	1	1298
5d1c92bc5f54410001ef8f0c	DL_test	24	da	ta	1	right	ta	1	1396
5d1c92bc5f54410001ef8f0c	DL_test	25	da	da	0	left	da	1	1124
5d1c92bc5f54410001ef8f0c	DL_test	26	da	ga	1	left	da	1	788
5d1c92bc5f54410001ef8f0c	DL_test	27	ga	ta	1	right	ta	1	1290
5d1c92bc5f54410001ef8f0c	DL_test	28	da	pa	1	right	pa	1	1317
5d1c92bc5f54410001ef8f0c	DL_test	29	ga	da	1	right	da	1	1186
5d1c92bc5f54410001ef8f0c	DL_test	30	ta	ta	0	left	ta	1	1194
5d1c92bc5f54410001ef8f0c	DL_test	31	ga	ba	1	right	ba	1	901
5d1c92bc5f54410001ef8f0c	DL_test	32	ta	ga	1	other	da	0	1425
5d1c92bc5f54410001ef8f0c	DL_test	33	pa	ga	1	right	ga	1	1052
5d1c92bc5f54410001ef8f0c	DL_test	34	ka	ba	1	other	pa	0	994
5d1c92bc5f54410001ef8f0c	DL_test	35	ka	ka	0	left	ka	1	1109
5d1c92bc5f54410001ef8f0c	DL_test	36	pa	ta	1	right	ta	1	1616
