subject	block	trialnum	DL_leftSound	DL_rightSound	DL_dualSound	DL_choice	response	correct	rt
5eaecb0824839e59ed3523eb	headphonecheck_testphase	3	NA	NA	0	NA	third	1	247
5eaecb0824839e59ed3523eb	headphonecheck_testphase	6	NA	NA	0	NA	second	1	310
5eaecb0824839e59ed3523eb	headphonecheck_testphase	9	NA	NA	0	NA	second	1	459
5eaecb0824839e59ed3523eb	headphonecheck_testphase	12	NA	NA	0	NA	first	1	370
5eaecb0824839e59ed3523eb	headphonecheck_testphase	15	NA	NA	0	NA	first	1	412
5eaecb0824839e59ed3523eb	headphonecheck_testphase	18	NA	NA	0	NA	third	1	443
5eaecb0824839e59ed3523eb	stereocheck_testphase	3	NA	NA	0	NA	stereocheck_right	1	279
5eaecb0824839e59ed3523eb	stereocheck_testphase	6	NA	NA	0	NA	stereocheck_right	1	242
5eaecb0824839e59ed3523eb	stereocheck_testphase	9	NA	NA	0	NA	stereocheck_left	1	221
5eaecb0824839e59ed3523eb	stereocheck_testphase	12	NA	NA	0	NA	stereocheck_left	1	192
5eaecb0824839e59ed3523eb	stereocheck_testphase	15	NA	NA	0	NA	stereocheck_right	1	191
5eaecb0824839e59ed3523eb	stereocheck_testphase	18	NA	NA	0	NA	stereocheck_left	1	229
5eaecb0824839e59ed3523eb	DL_practice	2	ga	ga	0	left	ga	1	1017
5eaecb0824839e59ed3523eb	DL_practice	3	da	ba	1	right	ba	1	2847
5eaecb0824839e59ed3523eb	DL_practice	4	ta	ta	0	left	ta	1	1469
5eaecb0824839e59ed3523eb	DL_practice	5	ka	ka	0	left	ka	1	1010
5eaecb0824839e59ed3523eb	DL_practice	6	pa	pa	0	left	pa	1	1112
5eaecb0824839e59ed3523eb	DL_practice	7	ga	ta	1	other	ka	0	1139
5eaecb0824839e59ed3523eb	DL_practice	8	ka	pa	1	right	pa	1	1178
5eaecb0824839e59ed3523eb	DL_practice	9	ba	ba	0	left	ba	1	1946
5eaecb0824839e59ed3523eb	DL_practice	10	da	da	0	left	da	1	1045
5eaecb0824839e59ed3523eb	DL_test	1	ga	ga	0	left	ga	1	692
5eaecb0824839e59ed3523eb	DL_test	2	ba	pa	1	right	pa	1	1174
5eaecb0824839e59ed3523eb	DL_test	3	ka	da	1	left	ka	1	886
5eaecb0824839e59ed3523eb	DL_test	4	ba	ta	1	other	ka	0	938
5eaecb0824839e59ed3523eb	DL_test	5	ba	ga	1	left	ba	1	1627
5eaecb0824839e59ed3523eb	DL_test	6	da	ga	1	right	ga	1	1072
5eaecb0824839e59ed3523eb	DL_test	7	da	da	0	left	da	1	1053
5eaecb0824839e59ed3523eb	DL_test	8	pa	pa	0	left	pa	1	1067
5eaecb0824839e59ed3523eb	DL_test	9	ka	ga	1	left	ka	1	838
5eaecb0824839e59ed3523eb	DL_test	10	ga	pa	1	right	pa	1	1025
5eaecb0824839e59ed3523eb	DL_test	11	ta	ga	1	other	ka	0	863
5eaecb0824839e59ed3523eb	DL_test	12	pa	ba	1	left	pa	1	981
5eaecb0824839e59ed3523eb	DL_test	13	ta	ba	1	other	ka	0	987
5eaecb0824839e59ed3523eb	DL_test	14	pa	ka	1	left	pa	1	1137
5eaecb0824839e59ed3523eb	DL_test	15	pa	ga	1	left	pa	1	1188
5eaecb0824839e59ed3523eb	DL_test	16	ga	ba	1	right	ba	1	1313
5eaecb0824839e59ed3523eb	DL_test	17	ka	ka	0	left	ka	1	1149
5eaecb0824839e59ed3523eb	DL_test	18	ba	da	1	left	ba	1	1613
5eaecb0824839e59ed3523eb	DL_test	19	pa	da	1	left	pa	1	1325
5eaecb0824839e59ed3523eb	DL_test	20	da	pa	1	right	pa	1	1263
5eaecb0824839e59ed3523eb	DL_test	21	ba	ba	0	left	ba	1	1147
5eaecb0824839e59ed3523eb	DL_test	22	da	ka	1	other	pa	0	1066
5eaecb0824839e59ed3523eb	DL_test	23	ka	ba	1	left	ka	1	854
5eaecb0824839e59ed3523eb	DL_test	24	ga	ka	1	right	ka	1	844
5eaecb0824839e59ed3523eb	DL_test	25	da	ta	1	other	ka	0	960
5eaecb0824839e59ed3523eb	DL_test	26	ga	ta	1	other	ka	0	1041
5eaecb0824839e59ed3523eb	DL_test	27	pa	ta	1	left	pa	1	1101
5eaecb0824839e59ed3523eb	DL_test	28	ta	ta	0	other	ka	0	1450
5eaecb0824839e59ed3523eb	DL_test	29	ba	ka	1	right	ka	1	1326
5eaecb0824839e59ed3523eb	DL_test	30	ta	pa	1	right	pa	1	1032
5eaecb0824839e59ed3523eb	DL_test	31	da	ba	1	right	ba	1	1470
5eaecb0824839e59ed3523eb	DL_test	32	ta	da	1	other	ka	0	1088
5eaecb0824839e59ed3523eb	DL_test	33	ka	ta	1	left	ka	1	964
5eaecb0824839e59ed3523eb	DL_test	34	ga	da	1	right	da	1	1102
5eaecb0824839e59ed3523eb	DL_test	35	ka	pa	1	right	pa	1	1079
5eaecb0824839e59ed3523eb	DL_test	36	ta	ka	1	right	ka	1	811
5eaecb0824839e59ed3523eb	DL_test	1	pa	ta	1	other	ka	0	1708
5eaecb0824839e59ed3523eb	DL_test	2	ga	ga	0	left	ga	1	1289
5eaecb0824839e59ed3523eb	DL_test	3	ba	ba	0	other	pa	0	1660
5eaecb0824839e59ed3523eb	DL_test	4	pa	ka	1	left	pa	1	1274
5eaecb0824839e59ed3523eb	DL_test	5	ka	ka	0	left	ka	1	717
5eaecb0824839e59ed3523eb	DL_test	6	ta	ga	1	other	ka	0	1271
5eaecb0824839e59ed3523eb	DL_test	7	ga	ka	1	right	ka	1	1922
5eaecb0824839e59ed3523eb	DL_test	8	ka	ga	1	left	ka	1	3260
5eaecb0824839e59ed3523eb	DL_test	9	ta	ta	0	other	ka	0	731
5eaecb0824839e59ed3523eb	DL_test	10	pa	ba	1	left	pa	1	1149
5eaecb0824839e59ed3523eb	DL_test	11	pa	ga	1	left	pa	1	975
5eaecb0824839e59ed3523eb	DL_test	12	da	ta	1	other	ka	0	1037
5eaecb0824839e59ed3523eb	DL_test	13	ka	ta	1	left	ka	1	948
5eaecb0824839e59ed3523eb	DL_test	14	da	ba	1	right	ba	1	2293
5eaecb0824839e59ed3523eb	DL_test	15	ta	pa	1	right	pa	1	1674
5eaecb0824839e59ed3523eb	DL_test	16	ga	ba	1	right	ba	1	1318
5eaecb0824839e59ed3523eb	DL_test	17	ba	da	1	left	ba	1	1601
5eaecb0824839e59ed3523eb	DL_test	18	ka	ba	1	left	ka	1	1383
5eaecb0824839e59ed3523eb	DL_test	19	pa	da	1	left	pa	1	1198
5eaecb0824839e59ed3523eb	DL_test	20	ka	pa	1	right	pa	1	2373
5eaecb0824839e59ed3523eb	DL_test	21	ta	da	1	other	ka	0	1526
5eaecb0824839e59ed3523eb	DL_test	22	ga	pa	1	right	pa	1	983
5eaecb0824839e59ed3523eb	DL_test	23	ba	ta	1	right	ta	1	1016
5eaecb0824839e59ed3523eb	DL_test	24	pa	pa	0	left	pa	1	886
5eaecb0824839e59ed3523eb	DL_test	25	da	ka	1	other	pa	0	825
5eaecb0824839e59ed3523eb	DL_test	26	ta	ba	1	other	ka	0	2149
5eaecb0824839e59ed3523eb	DL_test	27	da	pa	1	right	pa	1	952
5eaecb0824839e59ed3523eb	DL_test	28	ba	pa	1	right	pa	1	881
5eaecb0824839e59ed3523eb	DL_test	29	ba	ka	1	right	ka	1	1204
5eaecb0824839e59ed3523eb	DL_test	30	ba	ga	1	left	ba	1	1164
5eaecb0824839e59ed3523eb	DL_test	31	da	ga	1	left	da	1	851
5eaecb0824839e59ed3523eb	DL_test	32	ta	ka	1	right	ka	1	896
5eaecb0824839e59ed3523eb	DL_test	33	ga	ta	1	other	ka	0	730
5eaecb0824839e59ed3523eb	DL_test	34	ga	da	1	left	ga	1	1181
5eaecb0824839e59ed3523eb	DL_test	35	ka	da	1	left	ka	1	843
5eaecb0824839e59ed3523eb	DL_test	36	da	da	0	other	ga	0	976
5eaecb0824839e59ed3523eb	DL_test	1	ga	da	1	left	ga	1	1078
5eaecb0824839e59ed3523eb	DL_test	2	ta	ba	1	other	ka	0	979
5eaecb0824839e59ed3523eb	DL_test	3	da	pa	1	right	pa	1	802
5eaecb0824839e59ed3523eb	DL_test	4	ba	ta	1	right	ta	1	824
5eaecb0824839e59ed3523eb	DL_test	5	ta	ta	0	left	ta	1	1279
5eaecb0824839e59ed3523eb	DL_test	6	pa	ba	1	left	pa	1	801
5eaecb0824839e59ed3523eb	DL_test	7	ba	ba	0	left	ba	1	1281
5eaecb0824839e59ed3523eb	DL_test	8	pa	ga	1	left	pa	1	1562
5eaecb0824839e59ed3523eb	DL_test	9	ka	ga	1	left	ka	1	822
5eaecb0824839e59ed3523eb	DL_test	10	ba	da	1	left	ba	1	1050
5eaecb0824839e59ed3523eb	DL_test	11	da	ga	1	right	ga	1	1129
5eaecb0824839e59ed3523eb	DL_test	12	pa	ka	1	left	pa	1	1019
5eaecb0824839e59ed3523eb	DL_test	13	ta	ga	1	other	ka	0	856
5eaecb0824839e59ed3523eb	DL_test	14	ka	da	1	left	ka	1	982
5eaecb0824839e59ed3523eb	DL_test	15	da	ba	1	right	ba	1	1252
5eaecb0824839e59ed3523eb	DL_test	16	ga	ka	1	right	ka	1	849
5eaecb0824839e59ed3523eb	DL_test	17	ta	pa	1	right	pa	1	871
5eaecb0824839e59ed3523eb	DL_test	18	ka	pa	1	right	pa	1	915
5eaecb0824839e59ed3523eb	DL_test	19	da	ka	1	other	pa	0	964
5eaecb0824839e59ed3523eb	DL_test	20	ka	ta	1	left	ka	1	925
5eaecb0824839e59ed3523eb	DL_test	21	pa	pa	0	left	pa	1	893
5eaecb0824839e59ed3523eb	DL_test	22	ba	ka	1	right	ka	1	712
5eaecb0824839e59ed3523eb	DL_test	23	pa	ta	1	right	ta	1	1033
5eaecb0824839e59ed3523eb	DL_test	24	pa	da	1	left	pa	1	631
5eaecb0824839e59ed3523eb	DL_test	25	ka	ka	0	left	ka	1	1091
5eaecb0824839e59ed3523eb	DL_test	26	ta	ka	1	right	ka	1	718
5eaecb0824839e59ed3523eb	DL_test	27	ba	pa	1	right	pa	1	825
5eaecb0824839e59ed3523eb	DL_test	28	ba	ga	1	left	ba	1	1239
5eaecb0824839e59ed3523eb	DL_test	29	ga	ba	1	right	ba	1	1388
5eaecb0824839e59ed3523eb	DL_test	30	ka	ba	1	left	ka	1	826
5eaecb0824839e59ed3523eb	DL_test	31	ga	ga	0	left	ga	1	986
5eaecb0824839e59ed3523eb	DL_test	32	ga	ta	1	other	ka	0	800
5eaecb0824839e59ed3523eb	DL_test	33	da	da	0	other	ga	0	973
5eaecb0824839e59ed3523eb	DL_test	34	ga	pa	1	right	pa	1	1540
5eaecb0824839e59ed3523eb	DL_test	35	da	ta	1	other	ka	0	719
5eaecb0824839e59ed3523eb	DL_test	36	ta	da	1	other	ka	0	1416
5eaecb0824839e59ed3523eb	DL_test	1	da	ka	1	other	pa	0	1087
5eaecb0824839e59ed3523eb	DL_test	2	ta	ba	1	other	ka	0	930
5eaecb0824839e59ed3523eb	DL_test	3	da	pa	1	right	pa	1	1052
5eaecb0824839e59ed3523eb	DL_test	4	ba	ga	1	left	ba	1	1167
5eaecb0824839e59ed3523eb	DL_test	5	ka	pa	1	right	pa	1	1298
5eaecb0824839e59ed3523eb	DL_test	6	ga	pa	1	right	pa	1	899
5eaecb0824839e59ed3523eb	DL_test	7	ba	da	1	left	ba	1	1102
5eaecb0824839e59ed3523eb	DL_test	8	ga	da	1	left	ga	1	863
5eaecb0824839e59ed3523eb	DL_test	9	pa	ta	1	right	ta	1	979
5eaecb0824839e59ed3523eb	DL_test	10	ga	ta	1	right	ta	1	2148
5eaecb0824839e59ed3523eb	DL_test	11	da	ga	1	right	ga	1	981
5eaecb0824839e59ed3523eb	DL_test	12	ka	ba	1	left	ka	1	918
5eaecb0824839e59ed3523eb	DL_test	13	da	ta	1	right	ta	1	1424
5eaecb0824839e59ed3523eb	DL_test	14	ta	ta	0	left	ta	1	1015
5eaecb0824839e59ed3523eb	DL_test	15	pa	da	1	left	pa	1	867
5eaecb0824839e59ed3523eb	DL_test	16	pa	ka	1	right	ka	1	919
5eaecb0824839e59ed3523eb	DL_test	17	pa	pa	0	left	pa	1	1107
5eaecb0824839e59ed3523eb	DL_test	18	ga	ga	0	left	ga	1	933
5eaecb0824839e59ed3523eb	DL_test	19	ta	da	1	other	ka	0	806
5eaecb0824839e59ed3523eb	DL_test	20	ka	da	1	left	ka	1	771
5eaecb0824839e59ed3523eb	DL_test	21	ga	ka	1	right	ka	1	813
5eaecb0824839e59ed3523eb	DL_test	22	ba	pa	1	right	pa	1	891
5eaecb0824839e59ed3523eb	DL_test	23	ba	ta	1	right	ta	1	943
5eaecb0824839e59ed3523eb	DL_test	24	ba	ka	1	right	ka	1	903
5eaecb0824839e59ed3523eb	DL_test	25	da	da	0	other	ga	0	695
5eaecb0824839e59ed3523eb	DL_test	26	ka	ga	1	left	ka	1	715
5eaecb0824839e59ed3523eb	DL_test	27	ta	ga	1	other	ka	0	686
5eaecb0824839e59ed3523eb	DL_test	28	ta	ka	1	right	ka	1	722
5eaecb0824839e59ed3523eb	DL_test	29	ka	ta	1	left	ka	1	706
5eaecb0824839e59ed3523eb	DL_test	30	ba	ba	0	left	ba	1	1158
5eaecb0824839e59ed3523eb	DL_test	31	pa	ba	1	left	pa	1	967
5eaecb0824839e59ed3523eb	DL_test	32	da	ba	1	left	da	1	2230
5eaecb0824839e59ed3523eb	DL_test	33	pa	ga	1	left	pa	1	1021
5eaecb0824839e59ed3523eb	DL_test	34	ga	ba	1	right	ba	1	1363
5eaecb0824839e59ed3523eb	DL_test	35	ka	ka	0	left	ka	1	955
5eaecb0824839e59ed3523eb	DL_test	36	ta	pa	1	right	pa	1	955
