subject	block	trialnum	DL_leftSound	DL_rightSound	DL_dualSound	DL_choice	response	correct	rt
5ed1cd25eb6dc1122dbd700f	headphonecheck_testphase	3	NA	NA	0	NA	second	0	467
5ed1cd25eb6dc1122dbd700f	headphonecheck_testphase	6	NA	NA	0	NA	first	0	318
5ed1cd25eb6dc1122dbd700f	headphonecheck_testphase	9	NA	NA	0	NA	third	0	302
5ed1cd25eb6dc1122dbd700f	headphonecheck_testphase	12	NA	NA	0	NA	second	0	3367
5ed1cd25eb6dc1122dbd700f	headphonecheck_testphase	15	NA	NA	0	NA	first	0	413
5ed1cd25eb6dc1122dbd700f	headphonecheck_testphase	18	NA	NA	0	NA	third	0	791
5ed1cd25eb6dc1122dbd700f	stereocheck_testphase	3	NA	NA	0	NA	stereocheck_left	1	447
5ed1cd25eb6dc1122dbd700f	stereocheck_testphase	6	NA	NA	0	NA	stereocheck_right	1	834
5ed1cd25eb6dc1122dbd700f	stereocheck_testphase	9	NA	NA	0	NA	stereocheck_right	1	489
5ed1cd25eb6dc1122dbd700f	stereocheck_testphase	12	NA	NA	0	NA	stereocheck_left	1	364
5ed1cd25eb6dc1122dbd700f	stereocheck_testphase	15	NA	NA	0	NA	stereocheck_left	1	339
5ed1cd25eb6dc1122dbd700f	stereocheck_testphase	18	NA	NA	0	NA	stereocheck_right	1	286
5ed1cd25eb6dc1122dbd700f	DL_practice	2	ta	ta	0	left	ta	1	1829
5ed1cd25eb6dc1122dbd700f	DL_practice	3	ga	ta	1	other	ka	0	1521
5ed1cd25eb6dc1122dbd700f	DL_practice	4	ka	ka	0	left	ka	1	921
5ed1cd25eb6dc1122dbd700f	DL_practice	5	pa	pa	0	left	pa	1	1229
5ed1cd25eb6dc1122dbd700f	DL_practice	6	da	ba	1	other	ta	0	2262
5ed1cd25eb6dc1122dbd700f	DL_practice	7	ba	ba	0	other	pa	0	1991
5ed1cd25eb6dc1122dbd700f	DL_practice	8	ka	pa	1	left	ka	1	1018
5ed1cd25eb6dc1122dbd700f	DL_practice	9	ga	ga	0	left	ga	1	935
5ed1cd25eb6dc1122dbd700f	DL_practice	10	da	da	0	left	da	1	1066
5ed1cd25eb6dc1122dbd700f	DL_test	1	da	pa	1	right	pa	1	1103
5ed1cd25eb6dc1122dbd700f	DL_test	2	ka	ka	0	left	ka	1	835
5ed1cd25eb6dc1122dbd700f	DL_test	3	ka	ba	1	left	ka	1	1305
5ed1cd25eb6dc1122dbd700f	DL_test	4	da	ba	1	left	da	1	1101
5ed1cd25eb6dc1122dbd700f	DL_test	5	ga	ba	1	left	ga	1	1217
5ed1cd25eb6dc1122dbd700f	DL_test	6	da	ta	1	right	ta	1	1909
5ed1cd25eb6dc1122dbd700f	DL_test	7	da	ga	1	right	ga	1	1018
5ed1cd25eb6dc1122dbd700f	DL_test	8	ba	pa	1	right	pa	1	1082
5ed1cd25eb6dc1122dbd700f	DL_test	9	ba	ba	0	left	ba	1	4051
5ed1cd25eb6dc1122dbd700f	DL_test	10	ta	ga	1	other	ka	0	1208
5ed1cd25eb6dc1122dbd700f	DL_test	11	ga	pa	1	right	pa	1	967
5ed1cd25eb6dc1122dbd700f	DL_test	12	ta	pa	1	right	pa	1	916
5ed1cd25eb6dc1122dbd700f	DL_test	13	ka	ga	1	left	ka	1	917
5ed1cd25eb6dc1122dbd700f	DL_test	14	ba	ga	1	right	ga	1	858
5ed1cd25eb6dc1122dbd700f	DL_test	15	ta	da	1	left	ta	1	1183
5ed1cd25eb6dc1122dbd700f	DL_test	16	da	da	0	left	da	1	1429
5ed1cd25eb6dc1122dbd700f	DL_test	17	ta	ba	1	left	ta	1	1638
5ed1cd25eb6dc1122dbd700f	DL_test	18	ka	ta	1	left	ka	1	1580
5ed1cd25eb6dc1122dbd700f	DL_test	19	da	ka	1	other	ba	0	1165
5ed1cd25eb6dc1122dbd700f	DL_test	20	ta	ta	0	left	ta	1	1429
5ed1cd25eb6dc1122dbd700f	DL_test	21	ga	ga	0	left	ga	1	1303
5ed1cd25eb6dc1122dbd700f	DL_test	22	pa	ta	1	left	pa	1	1197
5ed1cd25eb6dc1122dbd700f	DL_test	23	ba	ta	1	other	pa	0	775
5ed1cd25eb6dc1122dbd700f	DL_test	24	ka	pa	1	left	ka	1	909
5ed1cd25eb6dc1122dbd700f	DL_test	25	pa	ka	1	right	ka	1	809
5ed1cd25eb6dc1122dbd700f	DL_test	26	pa	ga	1	other	ka	0	1192
5ed1cd25eb6dc1122dbd700f	DL_test	27	pa	ba	1	left	pa	1	853
5ed1cd25eb6dc1122dbd700f	DL_test	28	ka	da	1	left	ka	1	1593
5ed1cd25eb6dc1122dbd700f	DL_test	29	ba	ka	1	right	ka	1	887
5ed1cd25eb6dc1122dbd700f	DL_test	30	ta	ka	1	right	ka	1	620
5ed1cd25eb6dc1122dbd700f	DL_test	31	ga	ka	1	right	ka	1	569
5ed1cd25eb6dc1122dbd700f	DL_test	32	pa	da	1	left	pa	1	1243
5ed1cd25eb6dc1122dbd700f	DL_test	33	ba	da	1	right	da	1	779
5ed1cd25eb6dc1122dbd700f	DL_test	34	ga	da	1	left	ga	1	956
5ed1cd25eb6dc1122dbd700f	DL_test	35	ga	ta	1	right	ta	1	1329
5ed1cd25eb6dc1122dbd700f	DL_test	36	pa	pa	0	left	pa	1	879
5ed1cd25eb6dc1122dbd700f	DL_test	1	da	ka	1	other	pa	0	905
5ed1cd25eb6dc1122dbd700f	DL_test	2	da	ga	1	right	ga	1	712
5ed1cd25eb6dc1122dbd700f	DL_test	3	pa	ba	1	left	pa	1	805
5ed1cd25eb6dc1122dbd700f	DL_test	4	pa	ga	1	left	pa	1	1071
5ed1cd25eb6dc1122dbd700f	DL_test	5	ba	ta	1	right	ta	1	1453
5ed1cd25eb6dc1122dbd700f	DL_test	6	pa	ka	1	right	ka	1	851
5ed1cd25eb6dc1122dbd700f	DL_test	7	ga	ta	1	right	ta	1	1441
5ed1cd25eb6dc1122dbd700f	DL_test	8	ga	pa	1	right	pa	1	1076
5ed1cd25eb6dc1122dbd700f	DL_test	9	ta	ga	1	left	ta	1	1185
5ed1cd25eb6dc1122dbd700f	DL_test	10	ga	ba	1	other	da	0	1393
5ed1cd25eb6dc1122dbd700f	DL_test	11	ka	pa	1	left	ka	1	1720
5ed1cd25eb6dc1122dbd700f	DL_test	12	ga	ga	0	left	ga	1	681
5ed1cd25eb6dc1122dbd700f	DL_test	13	ba	ka	1	right	ka	1	927
5ed1cd25eb6dc1122dbd700f	DL_test	14	pa	da	1	left	pa	1	1199
5ed1cd25eb6dc1122dbd700f	DL_test	15	ka	ga	1	left	ka	1	1163
5ed1cd25eb6dc1122dbd700f	DL_test	16	ga	ka	1	right	ka	1	943
5ed1cd25eb6dc1122dbd700f	DL_test	17	da	ta	1	right	ta	1	1353
5ed1cd25eb6dc1122dbd700f	DL_test	18	ta	ba	1	other	da	0	1651
5ed1cd25eb6dc1122dbd700f	DL_test	19	ga	da	1	right	da	1	775
5ed1cd25eb6dc1122dbd700f	DL_test	20	ka	da	1	left	ka	1	1081
5ed1cd25eb6dc1122dbd700f	DL_test	21	pa	pa	0	left	pa	1	927
5ed1cd25eb6dc1122dbd700f	DL_test	22	da	ba	1	left	da	1	1501
5ed1cd25eb6dc1122dbd700f	DL_test	23	ta	ta	0	left	ta	1	1332
5ed1cd25eb6dc1122dbd700f	DL_test	24	ta	pa	1	left	ta	1	2823
5ed1cd25eb6dc1122dbd700f	DL_test	25	ba	ga	1	right	ga	1	871
5ed1cd25eb6dc1122dbd700f	DL_test	26	ba	pa	1	right	pa	1	845
5ed1cd25eb6dc1122dbd700f	DL_test	27	ta	ka	1	right	ka	1	937
5ed1cd25eb6dc1122dbd700f	DL_test	28	ta	da	1	left	ta	1	1608
5ed1cd25eb6dc1122dbd700f	DL_test	29	ka	ba	1	left	ka	1	959
5ed1cd25eb6dc1122dbd700f	DL_test	30	ka	ta	1	left	ka	1	815
5ed1cd25eb6dc1122dbd700f	DL_test	31	ba	ba	0	other	ga	0	1767
5ed1cd25eb6dc1122dbd700f	DL_test	32	ka	ka	0	left	ka	1	1316
5ed1cd25eb6dc1122dbd700f	DL_test	33	pa	ta	1	left	pa	1	1409
5ed1cd25eb6dc1122dbd700f	DL_test	34	da	pa	1	right	pa	1	1518
5ed1cd25eb6dc1122dbd700f	DL_test	35	ba	da	1	right	da	1	1089
5ed1cd25eb6dc1122dbd700f	DL_test	36	da	da	0	left	da	1	713
5ed1cd25eb6dc1122dbd700f	DL_test	1	ga	ba	1	other	da	0	833
5ed1cd25eb6dc1122dbd700f	DL_test	2	ka	da	1	left	ka	1	1407
5ed1cd25eb6dc1122dbd700f	DL_test	3	ga	ka	1	right	ka	1	760
5ed1cd25eb6dc1122dbd700f	DL_test	4	ta	ba	1	left	ta	1	2387
5ed1cd25eb6dc1122dbd700f	DL_test	5	ga	ga	0	left	ga	1	1106
5ed1cd25eb6dc1122dbd700f	DL_test	6	da	ga	1	right	ga	1	608
5ed1cd25eb6dc1122dbd700f	DL_test	7	da	ka	1	other	pa	0	1003
5ed1cd25eb6dc1122dbd700f	DL_test	8	ba	pa	1	right	pa	1	935
5ed1cd25eb6dc1122dbd700f	DL_test	9	pa	ka	1	right	ka	1	863
5ed1cd25eb6dc1122dbd700f	DL_test	10	ba	da	1	right	da	1	1568
5ed1cd25eb6dc1122dbd700f	DL_test	11	ka	ka	0	left	ka	1	985
5ed1cd25eb6dc1122dbd700f	DL_test	12	ga	ta	1	right	ta	1	2057
5ed1cd25eb6dc1122dbd700f	DL_test	13	ba	ga	1	right	ga	1	1131
5ed1cd25eb6dc1122dbd700f	DL_test	14	ga	pa	1	right	pa	1	1011
5ed1cd25eb6dc1122dbd700f	DL_test	15	ta	da	1	left	ta	1	1819
5ed1cd25eb6dc1122dbd700f	DL_test	16	ka	ba	1	left	ka	1	768
5ed1cd25eb6dc1122dbd700f	DL_test	17	pa	ga	1	left	pa	1	1347
5ed1cd25eb6dc1122dbd700f	DL_test	18	da	pa	1	right	pa	1	836
5ed1cd25eb6dc1122dbd700f	DL_test	19	pa	da	1	left	pa	1	752
5ed1cd25eb6dc1122dbd700f	DL_test	20	ba	ba	0	other	da	0	1314
5ed1cd25eb6dc1122dbd700f	DL_test	21	da	ba	1	left	da	1	2103
5ed1cd25eb6dc1122dbd700f	DL_test	22	ta	ta	0	left	ta	1	1082
5ed1cd25eb6dc1122dbd700f	DL_test	23	ta	pa	1	right	pa	1	957
5ed1cd25eb6dc1122dbd700f	DL_test	24	ta	ka	1	right	ka	1	2009
5ed1cd25eb6dc1122dbd700f	DL_test	25	da	ta	1	other	ka	0	1335
5ed1cd25eb6dc1122dbd700f	DL_test	26	ta	ga	1	left	ta	1	1037
5ed1cd25eb6dc1122dbd700f	DL_test	27	ga	da	1	left	ga	1	951
5ed1cd25eb6dc1122dbd700f	DL_test	28	ka	ta	1	left	ka	1	1335
5ed1cd25eb6dc1122dbd700f	DL_test	29	ka	pa	1	right	pa	1	1455
5ed1cd25eb6dc1122dbd700f	DL_test	30	ka	ga	1	left	ka	1	969
5ed1cd25eb6dc1122dbd700f	DL_test	31	pa	pa	0	left	pa	1	978
5ed1cd25eb6dc1122dbd700f	DL_test	32	pa	ba	1	left	pa	1	929
5ed1cd25eb6dc1122dbd700f	DL_test	33	pa	ta	1	right	ta	1	1224
5ed1cd25eb6dc1122dbd700f	DL_test	34	da	da	0	left	da	1	1453
5ed1cd25eb6dc1122dbd700f	DL_test	35	ba	ta	1	right	ta	1	1928
5ed1cd25eb6dc1122dbd700f	DL_test	36	ba	ka	1	right	ka	1	2654
5ed1cd25eb6dc1122dbd700f	DL_test	1	ba	da	1	other	ga	0	1254
5ed1cd25eb6dc1122dbd700f	DL_test	2	ka	ga	1	left	ka	1	1204
5ed1cd25eb6dc1122dbd700f	DL_test	3	pa	da	1	left	pa	1	1211
5ed1cd25eb6dc1122dbd700f	DL_test	4	da	ka	1	other	pa	0	898
5ed1cd25eb6dc1122dbd700f	DL_test	5	ga	ta	1	other	ba	0	1147
5ed1cd25eb6dc1122dbd700f	DL_test	6	ta	ka	1	right	ka	1	1238
5ed1cd25eb6dc1122dbd700f	DL_test	7	pa	ta	1	left	pa	1	867
5ed1cd25eb6dc1122dbd700f	DL_test	8	ka	ka	0	left	ka	1	825
5ed1cd25eb6dc1122dbd700f	DL_test	9	da	pa	1	right	pa	1	797
5ed1cd25eb6dc1122dbd700f	DL_test	10	ta	ta	0	left	ta	1	1041
5ed1cd25eb6dc1122dbd700f	DL_test	11	ta	pa	1	right	pa	1	968
5ed1cd25eb6dc1122dbd700f	DL_test	12	ga	ba	1	left	ga	1	854
5ed1cd25eb6dc1122dbd700f	DL_test	13	pa	ba	1	left	pa	1	806
5ed1cd25eb6dc1122dbd700f	DL_test	14	ga	ga	0	left	ga	1	678
5ed1cd25eb6dc1122dbd700f	DL_test	15	ka	da	1	left	ka	1	698
5ed1cd25eb6dc1122dbd700f	DL_test	16	ba	ta	1	right	ta	1	1527
5ed1cd25eb6dc1122dbd700f	DL_test	17	ta	da	1	right	da	1	2199
5ed1cd25eb6dc1122dbd700f	DL_test	18	da	ta	1	left	da	1	1081
5ed1cd25eb6dc1122dbd700f	DL_test	19	da	ba	1	right	ba	1	1693
5ed1cd25eb6dc1122dbd700f	DL_test	20	ga	pa	1	right	pa	1	1043
5ed1cd25eb6dc1122dbd700f	DL_test	21	ga	ka	1	right	ka	1	1063
5ed1cd25eb6dc1122dbd700f	DL_test	22	ba	ka	1	left	ba	1	1033
5ed1cd25eb6dc1122dbd700f	DL_test	23	ka	ba	1	left	ka	1	1180
5ed1cd25eb6dc1122dbd700f	DL_test	24	ga	da	1	right	da	1	846
5ed1cd25eb6dc1122dbd700f	DL_test	25	ba	ba	0	other	pa	0	1221
5ed1cd25eb6dc1122dbd700f	DL_test	26	da	ga	1	right	ga	1	975
5ed1cd25eb6dc1122dbd700f	DL_test	27	pa	ga	1	left	pa	1	1113
5ed1cd25eb6dc1122dbd700f	DL_test	28	pa	pa	0	left	pa	1	1243
5ed1cd25eb6dc1122dbd700f	DL_test	29	ba	ga	1	right	ga	1	905
5ed1cd25eb6dc1122dbd700f	DL_test	30	ta	ba	1	left	ta	1	1561
5ed1cd25eb6dc1122dbd700f	DL_test	31	ba	pa	1	right	pa	1	936
5ed1cd25eb6dc1122dbd700f	DL_test	32	pa	ka	1	right	ka	1	841
5ed1cd25eb6dc1122dbd700f	DL_test	33	da	da	0	other	ba	0	1289
5ed1cd25eb6dc1122dbd700f	DL_test	34	ka	pa	1	right	pa	1	1283
5ed1cd25eb6dc1122dbd700f	DL_test	35	ta	ga	1	right	ga	1	969
5ed1cd25eb6dc1122dbd700f	DL_test	36	ka	ta	1	other	ba	0	1234
