subject	block	trialnum	DL_leftSound	DL_rightSound	DL_dualSound	DL_choice	response	correct	rt
610acf76d33d448b391eb588	headphonecheck_testphase	3	NA	NA	0	NA	third	1	2223
610acf76d33d448b391eb588	headphonecheck_testphase	6	NA	NA	0	NA	third	1	1775
610acf76d33d448b391eb588	headphonecheck_testphase	9	NA	NA	0	NA	second	1	519
610acf76d33d448b391eb588	headphonecheck_testphase	12	NA	NA	0	NA	first	1	663
610acf76d33d448b391eb588	headphonecheck_testphase	15	NA	NA	0	NA	second	1	1016
610acf76d33d448b391eb588	headphonecheck_testphase	18	NA	NA	0	NA	first	1	424
610acf76d33d448b391eb588	stereocheck_testphase	3	NA	NA	0	NA	stereocheck_left	1	431
610acf76d33d448b391eb588	stereocheck_testphase	6	NA	NA	0	NA	stereocheck_right	1	506
610acf76d33d448b391eb588	stereocheck_testphase	9	NA	NA	0	NA	stereocheck_right	1	349
610acf76d33d448b391eb588	stereocheck_testphase	12	NA	NA	0	NA	stereocheck_left	1	351
610acf76d33d448b391eb588	stereocheck_testphase	15	NA	NA	0	NA	stereocheck_left	1	416
610acf76d33d448b391eb588	stereocheck_testphase	18	NA	NA	0	NA	stereocheck_right	1	462
610acf76d33d448b391eb588	DL_practice	2	ba	ba	0	left	ba	1	1380
610acf76d33d448b391eb588	DL_practice	3	ka	pa	1	left	ka	1	1637
610acf76d33d448b391eb588	DL_practice	4	da	ba	1	left	da	1	1021
610acf76d33d448b391eb588	DL_practice	5	pa	pa	0	left	pa	1	894
610acf76d33d448b391eb588	DL_practice	6	ta	ta	0	other	ka	0	1095
610acf76d33d448b391eb588	DL_practice	7	ga	ta	1	left	ga	1	612
610acf76d33d448b391eb588	DL_practice	8	ka	ka	0	left	ka	1	1160
610acf76d33d448b391eb588	DL_practice	9	da	da	0	left	da	1	921
610acf76d33d448b391eb588	DL_practice	10	ga	ga	0	left	ga	1	969
610acf76d33d448b391eb588	DL_test	1	ga	ba	1	right	ba	1	1177
610acf76d33d448b391eb588	DL_test	2	ka	ta	1	left	ka	1	802
610acf76d33d448b391eb588	DL_test	3	da	ba	1	left	da	1	1458
610acf76d33d448b391eb588	DL_test	4	ka	ba	1	right	ba	1	1054
610acf76d33d448b391eb588	DL_test	5	ta	ka	1	right	ka	1	706
610acf76d33d448b391eb588	DL_test	6	ba	ta	1	other	pa	0	1539
610acf76d33d448b391eb588	DL_test	7	da	da	0	left	da	1	850
610acf76d33d448b391eb588	DL_test	8	ta	pa	1	right	pa	1	1196
610acf76d33d448b391eb588	DL_test	9	ta	ba	1	other	pa	0	1369
610acf76d33d448b391eb588	DL_test	10	ta	da	1	right	da	1	1004
610acf76d33d448b391eb588	DL_test	11	ba	da	1	other	ga	0	2348
610acf76d33d448b391eb588	DL_test	12	ka	da	1	right	da	1	1649
610acf76d33d448b391eb588	DL_test	13	pa	da	1	other	ka	0	1772
610acf76d33d448b391eb588	DL_test	14	da	ga	1	right	ga	1	830
610acf76d33d448b391eb588	DL_test	15	pa	pa	0	left	pa	1	1006
610acf76d33d448b391eb588	DL_test	16	ba	ka	1	left	ba	1	3649
610acf76d33d448b391eb588	DL_test	17	pa	ba	1	left	pa	1	1153
610acf76d33d448b391eb588	DL_test	18	da	ta	1	left	da	1	1565
610acf76d33d448b391eb588	DL_test	19	ka	ga	1	right	ga	1	650
610acf76d33d448b391eb588	DL_test	20	da	ka	1	left	da	1	2040
610acf76d33d448b391eb588	DL_test	21	pa	ka	1	right	ka	1	1067
610acf76d33d448b391eb588	DL_test	22	da	pa	1	right	pa	1	1650
610acf76d33d448b391eb588	DL_test	23	ba	ba	0	left	ba	1	1186
610acf76d33d448b391eb588	DL_test	24	ta	ga	1	right	ga	1	726
610acf76d33d448b391eb588	DL_test	25	ga	ga	0	left	ga	1	623
610acf76d33d448b391eb588	DL_test	26	pa	ta	1	left	pa	1	1035
610acf76d33d448b391eb588	DL_test	27	ka	ka	0	left	ka	1	743
610acf76d33d448b391eb588	DL_test	28	pa	ga	1	other	ba	0	2245
610acf76d33d448b391eb588	DL_test	29	ga	pa	1	right	pa	1	2729
610acf76d33d448b391eb588	DL_test	30	ka	pa	1	left	ka	1	1233
610acf76d33d448b391eb588	DL_test	31	ba	ga	1	left	ba	1	1351
610acf76d33d448b391eb588	DL_test	32	ga	da	1	left	ga	1	760
610acf76d33d448b391eb588	DL_test	33	ta	ta	0	other	ka	0	597
610acf76d33d448b391eb588	DL_test	34	ga	ta	1	left	ga	1	877
610acf76d33d448b391eb588	DL_test	35	ba	pa	1	right	pa	1	1987
610acf76d33d448b391eb588	DL_test	36	ga	ka	1	left	ga	1	647
610acf76d33d448b391eb588	DL_test	1	ba	pa	1	left	ba	1	1050
610acf76d33d448b391eb588	DL_test	2	ta	pa	1	other	ka	0	1064
610acf76d33d448b391eb588	DL_test	3	da	da	0	left	da	1	783
610acf76d33d448b391eb588	DL_test	4	ba	ga	1	left	ba	1	1604
610acf76d33d448b391eb588	DL_test	5	pa	pa	0	left	pa	1	898
610acf76d33d448b391eb588	DL_test	6	da	ta	1	other	ga	0	1167
610acf76d33d448b391eb588	DL_test	7	ga	ga	0	left	ga	1	687
610acf76d33d448b391eb588	DL_test	8	ba	ka	1	other	pa	0	1441
610acf76d33d448b391eb588	DL_test	9	ba	ta	1	other	pa	0	956
610acf76d33d448b391eb588	DL_test	10	ga	da	1	left	ga	1	849
610acf76d33d448b391eb588	DL_test	11	ka	da	1	other	ga	0	1966
610acf76d33d448b391eb588	DL_test	12	pa	ka	1	left	pa	1	1862
610acf76d33d448b391eb588	DL_test	13	da	pa	1	other	ka	0	3056
610acf76d33d448b391eb588	DL_test	14	ga	ta	1	left	ga	1	795
610acf76d33d448b391eb588	DL_test	15	ta	da	1	left	ta	1	1184
610acf76d33d448b391eb588	DL_test	16	ta	ta	0	other	ka	0	1222
610acf76d33d448b391eb588	DL_test	17	pa	ba	1	left	pa	1	1058
610acf76d33d448b391eb588	DL_test	18	da	ba	1	right	ba	1	2107
610acf76d33d448b391eb588	DL_test	19	ka	ba	1	right	ba	1	1879
610acf76d33d448b391eb588	DL_test	20	ta	ba	1	other	pa	0	1157
610acf76d33d448b391eb588	DL_test	21	ka	ta	1	left	ka	1	1095
610acf76d33d448b391eb588	DL_test	22	ga	ka	1	left	ga	1	838
610acf76d33d448b391eb588	DL_test	23	ka	pa	1	right	pa	1	901
610acf76d33d448b391eb588	DL_test	24	pa	ta	1	left	pa	1	938
610acf76d33d448b391eb588	DL_test	25	da	ka	1	other	ga	0	1198
610acf76d33d448b391eb588	DL_test	26	da	ga	1	right	ga	1	631
610acf76d33d448b391eb588	DL_test	27	pa	ga	1	left	pa	1	1193
610acf76d33d448b391eb588	DL_test	28	ta	ka	1	right	ka	1	1306
610acf76d33d448b391eb588	DL_test	29	ga	ba	1	right	ba	1	1141
610acf76d33d448b391eb588	DL_test	30	ba	ba	0	left	ba	1	815
610acf76d33d448b391eb588	DL_test	31	ba	da	1	right	da	1	2563
610acf76d33d448b391eb588	DL_test	32	ka	ka	0	left	ka	1	875
610acf76d33d448b391eb588	DL_test	33	pa	da	1	left	pa	1	1630
610acf76d33d448b391eb588	DL_test	34	ka	ga	1	right	ga	1	886
610acf76d33d448b391eb588	DL_test	35	ga	pa	1	left	ga	1	1662
610acf76d33d448b391eb588	DL_test	36	ta	ga	1	right	ga	1	710
610acf76d33d448b391eb588	DL_test	1	ka	ba	1	other	pa	0	898
610acf76d33d448b391eb588	DL_test	2	ta	pa	1	right	pa	1	866
610acf76d33d448b391eb588	DL_test	3	da	ba	1	left	da	1	1019
610acf76d33d448b391eb588	DL_test	4	ga	ka	1	left	ga	1	744
610acf76d33d448b391eb588	DL_test	5	ta	ka	1	right	ka	1	1231
610acf76d33d448b391eb588	DL_test	6	ga	pa	1	left	ga	1	819
610acf76d33d448b391eb588	DL_test	7	ka	ga	1	right	ga	1	826
610acf76d33d448b391eb588	DL_test	8	ba	ga	1	left	ba	1	1066
610acf76d33d448b391eb588	DL_test	9	da	da	0	left	da	1	775
610acf76d33d448b391eb588	DL_test	10	pa	pa	0	left	pa	1	1044
610acf76d33d448b391eb588	DL_test	11	ka	da	1	other	ga	0	870
610acf76d33d448b391eb588	DL_test	12	ka	pa	1	right	pa	1	1267
610acf76d33d448b391eb588	DL_test	13	pa	da	1	right	da	1	788
610acf76d33d448b391eb588	DL_test	14	pa	ba	1	left	pa	1	936
610acf76d33d448b391eb588	DL_test	15	ta	ba	1	other	pa	0	2918
610acf76d33d448b391eb588	DL_test	16	ga	ga	0	left	ga	1	808
610acf76d33d448b391eb588	DL_test	17	ka	ka	0	left	ka	1	1001
610acf76d33d448b391eb588	DL_test	18	ba	ta	1	other	pa	0	1087
610acf76d33d448b391eb588	DL_test	19	ga	da	1	left	ga	1	894
610acf76d33d448b391eb588	DL_test	20	ga	ba	1	right	ba	1	1015
610acf76d33d448b391eb588	DL_test	21	da	ta	1	left	da	1	714
610acf76d33d448b391eb588	DL_test	22	ba	ba	0	left	ba	1	1094
610acf76d33d448b391eb588	DL_test	23	ba	pa	1	other	ka	0	1639
610acf76d33d448b391eb588	DL_test	24	ba	ka	1	right	ka	1	2216
610acf76d33d448b391eb588	DL_test	25	pa	ta	1	left	pa	1	1257
610acf76d33d448b391eb588	DL_test	26	da	ga	1	right	ga	1	579
610acf76d33d448b391eb588	DL_test	27	ba	da	1	left	ba	1	1101
610acf76d33d448b391eb588	DL_test	28	ta	ta	0	other	ka	0	901
610acf76d33d448b391eb588	DL_test	29	ta	da	1	right	da	1	1231
610acf76d33d448b391eb588	DL_test	30	ka	ta	1	left	ka	1	991
610acf76d33d448b391eb588	DL_test	31	da	pa	1	left	da	1	1719
610acf76d33d448b391eb588	DL_test	32	ga	ta	1	left	ga	1	1634
610acf76d33d448b391eb588	DL_test	33	da	ka	1	left	da	1	1302
610acf76d33d448b391eb588	DL_test	34	pa	ga	1	left	pa	1	1660
610acf76d33d448b391eb588	DL_test	35	ta	ga	1	right	ga	1	723
610acf76d33d448b391eb588	DL_test	36	pa	ka	1	right	ka	1	707
610acf76d33d448b391eb588	DL_test	1	ka	ga	1	right	ga	1	656
610acf76d33d448b391eb588	DL_test	2	ta	pa	1	right	pa	1	854
610acf76d33d448b391eb588	DL_test	3	da	ga	1	right	ga	1	752
610acf76d33d448b391eb588	DL_test	4	pa	pa	0	left	pa	1	1014
610acf76d33d448b391eb588	DL_test	5	ba	ba	0	left	ba	1	1096
610acf76d33d448b391eb588	DL_test	6	pa	ta	1	other	ga	0	990
610acf76d33d448b391eb588	DL_test	7	ga	da	1	left	ga	1	775
610acf76d33d448b391eb588	DL_test	8	ta	ka	1	right	ka	1	823
610acf76d33d448b391eb588	DL_test	9	ka	ka	0	left	ka	1	789
610acf76d33d448b391eb588	DL_test	10	ka	ba	1	other	pa	0	1216
610acf76d33d448b391eb588	DL_test	11	ba	pa	1	left	ba	1	1213
610acf76d33d448b391eb588	DL_test	12	da	pa	1	left	da	1	1102
610acf76d33d448b391eb588	DL_test	13	da	ta	1	left	da	1	1342
610acf76d33d448b391eb588	DL_test	14	ba	ta	1	other	pa	0	1326
610acf76d33d448b391eb588	DL_test	15	pa	ba	1	left	pa	1	1099
610acf76d33d448b391eb588	DL_test	16	ta	ga	1	right	ga	1	791
610acf76d33d448b391eb588	DL_test	17	ta	ba	1	other	pa	0	879
610acf76d33d448b391eb588	DL_test	18	ka	pa	1	right	pa	1	3282
610acf76d33d448b391eb588	DL_test	19	da	ba	1	left	da	1	1010
610acf76d33d448b391eb588	DL_test	20	pa	ka	1	left	pa	1	1045
610acf76d33d448b391eb588	DL_test	21	ba	ga	1	left	ba	1	1079
610acf76d33d448b391eb588	DL_test	22	pa	ga	1	left	pa	1	1560
610acf76d33d448b391eb588	DL_test	23	ga	ba	1	left	ga	1	2256
610acf76d33d448b391eb588	DL_test	24	ta	da	1	right	da	1	821
610acf76d33d448b391eb588	DL_test	25	ba	ka	1	left	ba	1	1102
610acf76d33d448b391eb588	DL_test	26	ga	pa	1	left	ga	1	761
610acf76d33d448b391eb588	DL_test	27	ga	ga	0	left	ga	1	709
610acf76d33d448b391eb588	DL_test	28	ka	da	1	left	ka	1	1340
610acf76d33d448b391eb588	DL_test	29	da	ka	1	left	da	1	1013
610acf76d33d448b391eb588	DL_test	30	ka	ta	1	left	ka	1	894
610acf76d33d448b391eb588	DL_test	31	ga	ka	1	left	ga	1	755
610acf76d33d448b391eb588	DL_test	32	ga	ta	1	left	ga	1	672
610acf76d33d448b391eb588	DL_test	33	ba	da	1	left	ba	1	1227
610acf76d33d448b391eb588	DL_test	34	pa	da	1	left	pa	1	1237
610acf76d33d448b391eb588	DL_test	35	da	da	0	left	da	1	957
610acf76d33d448b391eb588	DL_test	36	ta	ta	0	other	ka	0	955
