subject	block	trialnum	DL_leftSound	DL_rightSound	DL_dualSound	DL_choice	response	correct	rt
631f8164145b26de1567f040	headphonecheck_testphase	3	NA	NA	0	NA	second	0	1192
631f8164145b26de1567f040	headphonecheck_testphase	6	NA	NA	0	NA	second	0	846
631f8164145b26de1567f040	headphonecheck_testphase	9	NA	NA	0	NA	first	0	834
631f8164145b26de1567f040	headphonecheck_testphase	12	NA	NA	0	NA	third	0	521
631f8164145b26de1567f040	headphonecheck_testphase	15	NA	NA	0	NA	first	0	815
631f8164145b26de1567f040	headphonecheck_testphase	18	NA	NA	0	NA	third	0	560
631f8164145b26de1567f040	stereocheck_testphase	3	NA	NA	0	NA	stereocheck_left	1	452
631f8164145b26de1567f040	stereocheck_testphase	6	NA	NA	0	NA	stereocheck_left	1	448
631f8164145b26de1567f040	stereocheck_testphase	9	NA	NA	0	NA	stereocheck_left	1	496
631f8164145b26de1567f040	stereocheck_testphase	12	NA	NA	0	NA	stereocheck_right	1	403
631f8164145b26de1567f040	stereocheck_testphase	15	NA	NA	0	NA	stereocheck_right	1	388
631f8164145b26de1567f040	stereocheck_testphase	18	NA	NA	0	NA	stereocheck_right	1	388
631f8164145b26de1567f040	DL_practice	2	ga	ta	1	other	ka	0	2053
631f8164145b26de1567f040	DL_practice	3	ka	ka	0	left	ka	1	1267
631f8164145b26de1567f040	DL_practice	4	ka	pa	1	right	pa	1	1528
631f8164145b26de1567f040	DL_practice	5	ta	ta	0	left	ta	1	1175
631f8164145b26de1567f040	DL_practice	6	ba	ba	0	left	ba	1	1773
631f8164145b26de1567f040	DL_practice	7	da	ba	1	left	da	1	1632
631f8164145b26de1567f040	DL_practice	8	ga	ga	0	left	ga	1	1090
631f8164145b26de1567f040	DL_practice	9	pa	pa	0	left	pa	1	1287
631f8164145b26de1567f040	DL_practice	10	da	da	0	left	da	1	1395
631f8164145b26de1567f040	DL_test	1	ta	pa	1	right	pa	1	1839
631f8164145b26de1567f040	DL_test	2	pa	ga	1	left	pa	1	880
631f8164145b26de1567f040	DL_test	3	ba	ta	1	right	ta	1	1337
631f8164145b26de1567f040	DL_test	4	da	ga	1	left	da	1	1375
631f8164145b26de1567f040	DL_test	5	ba	ka	1	right	ka	1	1299
631f8164145b26de1567f040	DL_test	6	ka	pa	1	right	pa	1	1724
631f8164145b26de1567f040	DL_test	7	ga	pa	1	right	pa	1	875
631f8164145b26de1567f040	DL_test	8	ka	ka	0	left	ka	1	1358
631f8164145b26de1567f040	DL_test	9	ta	da	1	left	ta	1	1322
631f8164145b26de1567f040	DL_test	10	ka	ta	1	right	ta	1	1777
631f8164145b26de1567f040	DL_test	11	da	ta	1	right	ta	1	880
631f8164145b26de1567f040	DL_test	12	ga	ga	0	left	ga	1	1321
631f8164145b26de1567f040	DL_test	13	da	ka	1	other	pa	0	1430
631f8164145b26de1567f040	DL_test	14	ba	ba	0	left	ba	1	2148
631f8164145b26de1567f040	DL_test	15	ta	ka	1	left	ta	1	1729
631f8164145b26de1567f040	DL_test	16	pa	ba	1	left	pa	1	1378
631f8164145b26de1567f040	DL_test	17	ba	da	1	right	da	1	1535
631f8164145b26de1567f040	DL_test	18	ta	ba	1	left	ta	1	1638
631f8164145b26de1567f040	DL_test	19	pa	ta	1	right	ta	1	1209
631f8164145b26de1567f040	DL_test	20	ka	ga	1	left	ka	1	1216
631f8164145b26de1567f040	DL_test	21	ba	pa	1	right	pa	1	1231
631f8164145b26de1567f040	DL_test	22	ga	ka	1	right	ka	1	1157
631f8164145b26de1567f040	DL_test	23	ga	ta	1	right	ta	1	1438
631f8164145b26de1567f040	DL_test	24	pa	ka	1	left	pa	1	1527
631f8164145b26de1567f040	DL_test	25	da	da	0	left	da	1	1418
631f8164145b26de1567f040	DL_test	26	pa	da	1	left	pa	1	1830
631f8164145b26de1567f040	DL_test	27	pa	pa	0	left	pa	1	982
631f8164145b26de1567f040	DL_test	28	ta	ga	1	other	ka	0	1220
631f8164145b26de1567f040	DL_test	29	ta	ta	0	left	ta	1	1286
631f8164145b26de1567f040	DL_test	30	ga	da	1	right	da	1	1260
631f8164145b26de1567f040	DL_test	31	ga	ba	1	right	ba	1	1389
631f8164145b26de1567f040	DL_test	32	ka	ba	1	left	ka	1	1505
631f8164145b26de1567f040	DL_test	33	da	ba	1	left	da	1	1931
631f8164145b26de1567f040	DL_test	34	ka	da	1	left	ka	1	1449
631f8164145b26de1567f040	DL_test	35	ba	ga	1	right	ga	1	1425
631f8164145b26de1567f040	DL_test	36	da	pa	1	right	pa	1	1114
631f8164145b26de1567f040	DL_test	1	ta	ba	1	left	ta	1	1720
631f8164145b26de1567f040	DL_test	2	pa	ka	1	other	ta	0	1494
631f8164145b26de1567f040	DL_test	3	ka	ka	0	left	ka	1	1458
631f8164145b26de1567f040	DL_test	4	ba	ba	0	left	ba	1	2281
631f8164145b26de1567f040	DL_test	5	ga	ka	1	right	ka	1	1178
631f8164145b26de1567f040	DL_test	6	pa	da	1	other	ta	0	2367
631f8164145b26de1567f040	DL_test	7	ba	ta	1	right	ta	1	1406
631f8164145b26de1567f040	DL_test	8	ga	pa	1	right	pa	1	1234
631f8164145b26de1567f040	DL_test	9	ga	ba	1	left	ga	1	1578
631f8164145b26de1567f040	DL_test	10	da	ta	1	right	ta	1	1241
631f8164145b26de1567f040	DL_test	11	da	ga	1	left	da	1	1179
631f8164145b26de1567f040	DL_test	12	ta	ga	1	right	ga	1	1625
631f8164145b26de1567f040	DL_test	13	ba	ka	1	right	ka	1	1187
631f8164145b26de1567f040	DL_test	14	ta	ka	1	left	ta	1	1309
631f8164145b26de1567f040	DL_test	15	da	ba	1	left	da	1	1886
631f8164145b26de1567f040	DL_test	16	ba	pa	1	right	pa	1	1235
631f8164145b26de1567f040	DL_test	17	ga	da	1	right	da	1	1113
631f8164145b26de1567f040	DL_test	18	pa	pa	0	left	pa	1	1332
631f8164145b26de1567f040	DL_test	19	ka	ga	1	right	ga	1	1462
631f8164145b26de1567f040	DL_test	20	pa	ga	1	other	ba	0	1865
631f8164145b26de1567f040	DL_test	21	ka	ta	1	left	ka	1	1158
631f8164145b26de1567f040	DL_test	22	da	da	0	left	da	1	1390
631f8164145b26de1567f040	DL_test	23	ta	ta	0	left	ta	1	1213
631f8164145b26de1567f040	DL_test	24	pa	ba	1	left	pa	1	949
631f8164145b26de1567f040	DL_test	25	ta	pa	1	right	pa	1	1831
631f8164145b26de1567f040	DL_test	26	ga	ga	0	left	ga	1	1138
631f8164145b26de1567f040	DL_test	27	ka	ba	1	left	ka	1	1350
631f8164145b26de1567f040	DL_test	28	da	pa	1	right	pa	1	1362
631f8164145b26de1567f040	DL_test	29	ta	da	1	left	ta	1	1357
631f8164145b26de1567f040	DL_test	30	ka	da	1	other	ga	0	1515
631f8164145b26de1567f040	DL_test	31	pa	ta	1	right	ta	1	1148
631f8164145b26de1567f040	DL_test	32	ba	ga	1	right	ga	1	1366
631f8164145b26de1567f040	DL_test	33	da	ka	1	other	pa	0	1042
631f8164145b26de1567f040	DL_test	34	ba	da	1	right	da	1	1309
631f8164145b26de1567f040	DL_test	35	ka	pa	1	right	pa	1	1761
631f8164145b26de1567f040	DL_test	36	ga	ta	1	other	ka	0	1144
631f8164145b26de1567f040	DL_test	1	ka	da	1	other	ga	0	1829
631f8164145b26de1567f040	DL_test	2	ta	pa	1	left	ta	1	1220
631f8164145b26de1567f040	DL_test	3	pa	pa	0	left	pa	1	1019
631f8164145b26de1567f040	DL_test	4	da	ba	1	left	da	1	1440
631f8164145b26de1567f040	DL_test	5	pa	ga	1	other	ba	0	1745
631f8164145b26de1567f040	DL_test	6	ta	da	1	left	ta	1	2115
631f8164145b26de1567f040	DL_test	7	da	da	0	left	da	1	1166
631f8164145b26de1567f040	DL_test	8	ba	ta	1	right	ta	1	1269
631f8164145b26de1567f040	DL_test	9	da	ga	1	left	da	1	1218
631f8164145b26de1567f040	DL_test	10	pa	ka	1	other	ta	0	1213
631f8164145b26de1567f040	DL_test	11	ga	ba	1	right	ba	1	1490
631f8164145b26de1567f040	DL_test	12	ba	ga	1	right	ga	1	1401
631f8164145b26de1567f040	DL_test	13	ba	da	1	right	da	1	2106
631f8164145b26de1567f040	DL_test	14	ba	ka	1	right	ka	1	1317
631f8164145b26de1567f040	DL_test	15	da	pa	1	right	pa	1	1263
631f8164145b26de1567f040	DL_test	16	ta	ba	1	left	ta	1	1224
631f8164145b26de1567f040	DL_test	17	ka	ga	1	right	ga	1	1388
631f8164145b26de1567f040	DL_test	18	ga	pa	1	right	pa	1	1095
631f8164145b26de1567f040	DL_test	19	ba	pa	1	right	pa	1	998
631f8164145b26de1567f040	DL_test	20	ka	ta	1	left	ka	1	1019
631f8164145b26de1567f040	DL_test	21	ga	ta	1	other	ka	0	1076
631f8164145b26de1567f040	DL_test	22	da	ta	1	right	ta	1	1105
631f8164145b26de1567f040	DL_test	23	ka	pa	1	right	pa	1	1323
631f8164145b26de1567f040	DL_test	24	ga	ga	0	left	ga	1	947
631f8164145b26de1567f040	DL_test	25	ta	ga	1	right	ga	1	1801
631f8164145b26de1567f040	DL_test	26	pa	ta	1	right	ta	1	1325
631f8164145b26de1567f040	DL_test	27	ta	ta	0	left	ta	1	1005
631f8164145b26de1567f040	DL_test	28	ka	ka	0	left	ka	1	1083
631f8164145b26de1567f040	DL_test	29	ba	ba	0	left	ba	1	1230
631f8164145b26de1567f040	DL_test	30	ta	ka	1	right	ka	1	1135
631f8164145b26de1567f040	DL_test	31	da	ka	1	other	pa	0	1436
631f8164145b26de1567f040	DL_test	32	pa	ba	1	right	ba	1	2212
631f8164145b26de1567f040	DL_test	33	pa	da	1	other	ba	0	2080
631f8164145b26de1567f040	DL_test	34	ga	da	1	right	da	1	1149
631f8164145b26de1567f040	DL_test	35	ga	ka	1	right	ka	1	1459
631f8164145b26de1567f040	DL_test	36	ka	ba	1	left	ka	1	1856
631f8164145b26de1567f040	DL_test	1	da	ba	1	left	da	1	1120
631f8164145b26de1567f040	DL_test	2	da	ga	1	left	da	1	715
631f8164145b26de1567f040	DL_test	3	ba	ta	1	right	ta	1	1678
631f8164145b26de1567f040	DL_test	4	ba	ba	0	left	ba	1	1693
631f8164145b26de1567f040	DL_test	5	ta	pa	1	right	pa	1	1475
631f8164145b26de1567f040	DL_test	6	ba	ka	1	right	ka	1	1087
631f8164145b26de1567f040	DL_test	7	ga	ka	1	right	ka	1	933
631f8164145b26de1567f040	DL_test	8	ta	ka	1	right	ka	1	807
631f8164145b26de1567f040	DL_test	9	ta	ga	1	right	ga	1	1226
631f8164145b26de1567f040	DL_test	10	da	pa	1	right	pa	1	1298
631f8164145b26de1567f040	DL_test	11	pa	ga	1	other	ba	0	1534
631f8164145b26de1567f040	DL_test	12	pa	ba	1	left	pa	1	2296
631f8164145b26de1567f040	DL_test	13	ka	ga	1	left	ka	1	1061
631f8164145b26de1567f040	DL_test	14	ga	pa	1	other	ka	0	1336
631f8164145b26de1567f040	DL_test	15	da	da	0	left	da	1	1149
631f8164145b26de1567f040	DL_test	16	ka	ta	1	left	ka	1	1087
631f8164145b26de1567f040	DL_test	17	da	ka	1	other	pa	0	1232
631f8164145b26de1567f040	DL_test	18	pa	ka	1	right	ka	1	1435
631f8164145b26de1567f040	DL_test	19	pa	da	1	right	da	1	1510
631f8164145b26de1567f040	DL_test	20	pa	pa	0	left	pa	1	1361
631f8164145b26de1567f040	DL_test	21	ba	pa	1	right	pa	1	755
631f8164145b26de1567f040	DL_test	22	ba	da	1	right	da	1	1377
631f8164145b26de1567f040	DL_test	23	ka	da	1	other	ga	0	2293
631f8164145b26de1567f040	DL_test	24	pa	ta	1	right	ta	1	1472
631f8164145b26de1567f040	DL_test	25	ga	ba	1	right	ba	1	1582
631f8164145b26de1567f040	DL_test	26	ga	da	1	right	da	1	1085
631f8164145b26de1567f040	DL_test	27	ta	ta	0	left	ta	1	1310
631f8164145b26de1567f040	DL_test	28	ba	ga	1	right	ga	1	1552
631f8164145b26de1567f040	DL_test	29	da	ta	1	right	ta	1	1348
631f8164145b26de1567f040	DL_test	30	ta	da	1	right	da	1	2327
631f8164145b26de1567f040	DL_test	31	ka	ka	0	left	ka	1	1091
631f8164145b26de1567f040	DL_test	32	ka	ba	1	other	ga	0	1379
631f8164145b26de1567f040	DL_test	33	ga	ta	1	other	ka	0	2038
631f8164145b26de1567f040	DL_test	34	ka	pa	1	right	pa	1	1509
631f8164145b26de1567f040	DL_test	35	ga	ga	0	left	ga	1	1170
631f8164145b26de1567f040	DL_test	36	ta	ba	1	other	da	0	1952
