subject	time_elapsed_ms	blocknum	block_type	block_response	trialnum	target	level	field	target_present	response	correct	rt
56e77a8f38f932000a86e118	117363	1	practice	z	1	circle	global	RVF	yes	present	1	1218
56e77a8f38f932000a86e118	122578	1	practice	z	2	square	local	LVF	yes	absent	0	2000
56e77a8f38f932000a86e118	127563	1	practice	z	3	circle	local	RVF	yes	absent	0	2000
56e77a8f38f932000a86e118	131996	1	practice	z	4	absent	absent	absent	no	absent	1	2000
56e77a8f38f932000a86e118	136712	1	practice	z	5	absent	absent	absent	no	absent	1	2000
56e77a8f38f932000a86e118	140931	1	practice	z	6	square	local	LVF	yes	absent	0	2000
56e77a8f38f932000a86e118	143970	1	practice	z	7	circle	local	RVF	yes	present	1	941
56e77a8f38f932000a86e118	146970	1	practice	z	8	circle	global	LVF	yes	present	1	891
56e77a8f38f932000a86e118	150117	1	practice	z	9	square	global	LVF	yes	present	1	987
56e77a8f38f932000a86e118	154096	1	practice	z	10	absent	absent	absent	no	absent	1	2000
56e77a8f38f932000a86e118	157361	1	practice	z	11	circle	global	RVF	yes	present	1	731
56e77a8f38f932000a86e118	160409	1	practice	z	12	circle	global	LVF	yes	present	1	895
56e77a8f38f932000a86e118	164648	1	practice	z	13	absent	absent	absent	no	absent	1	2000
56e77a8f38f932000a86e118	167609	1	practice	z	14	square	global	RVF	yes	present	1	846
56e77a8f38f932000a86e118	170660	1	practice	z	15	square	global	LVF	yes	present	1	963
56e77a8f38f932000a86e118	173718	1	practice	z	16	circle	local	RVF	yes	present	1	1053
56e77a8f38f932000a86e118	180761	2	main	z	1	circle	local	LVF	yes	present	1	964
56e77a8f38f932000a86e118	183800	2	main	z	2	square	local	RVF	yes	present	1	1036
56e77a8f38f932000a86e118	186352	2	main	z	3	circle	local	RVF	yes	present	1	1254
56e77a8f38f932000a86e118	189597	2	main	z	4	absent	absent	absent	no	absent	1	2000
56e77a8f38f932000a86e118	191480	2	main	z	5	square	local	RVF	yes	present	1	783
56e77a8f38f932000a86e118	194832	2	main	z	6	square	global	RVF	yes	absent	0	2000
56e77a8f38f932000a86e118	196704	2	main	z	7	square	global	LVF	yes	present	1	723
56e77a8f38f932000a86e118	198712	2	main	z	8	circle	global	RVF	yes	present	1	847
56e77a8f38f932000a86e118	200720	2	main	z	9	square	global	LVF	yes	present	1	838
56e77a8f38f932000a86e118	203033	2	main	z	10	square	local	LVF	yes	present	1	1001
56e77a8f38f932000a86e118	205199	2	main	z	11	circle	global	LVF	yes	present	1	901
56e77a8f38f932000a86e118	207204	2	main	z	12	square	global	LVF	yes	present	1	856
56e77a8f38f932000a86e118	209968	2	main	z	13	square	global	RVF	yes	present	1	1653
56e77a8f38f932000a86e118	212085	2	main	z	14	circle	local	LVF	yes	present	1	920
56e77a8f38f932000a86e118	214088	2	main	z	15	circle	local	RVF	yes	present	1	871
56e77a8f38f932000a86e118	216315	2	main	z	16	square	local	LVF	yes	present	1	917
56e77a8f38f932000a86e118	218795	2	main	z	17	square	global	RVF	yes	present	1	1229
56e77a8f38f932000a86e118	221698	2	main	z	18	square	global	RVF	yes	present	1	1750
56e77a8f38f932000a86e118	223577	2	main	z	19	circle	global	LVF	yes	present	1	812
56e77a8f38f932000a86e118	225431	2	main	z	20	circle	global	RVF	yes	present	1	848
56e77a8f38f932000a86e118	228499	2	main	z	21	absent	absent	absent	no	absent	1	2000
56e77a8f38f932000a86e118	231565	2	main	z	22	absent	absent	absent	no	absent	1	2000
56e77a8f38f932000a86e118	233823	2	main	z	23	circle	global	LVF	yes	present	1	723
56e77a8f38f932000a86e118	235668	2	main	z	24	circle	local	LVF	yes	present	1	818
56e77a8f38f932000a86e118	237725	2	main	z	25	square	local	RVF	yes	present	1	1058
56e77a8f38f932000a86e118	240218	2	main	z	26	circle	global	RVF	yes	present	1	1452
56e77a8f38f932000a86e118	242118	2	main	z	27	circle	global	RVF	yes	present	1	901
56e77a8f38f932000a86e118	244190	2	main	z	28	square	local	RVF	yes	present	1	1057
56e77a8f38f932000a86e118	247134	2	main	z	29	absent	absent	absent	no	absent	1	2000
56e77a8f38f932000a86e118	248868	2	main	z	30	circle	global	LVF	yes	present	1	752
56e77a8f38f932000a86e118	250633	2	main	z	31	square	local	LVF	yes	present	1	833
56e77a8f38f932000a86e118	253600	2	main	z	32	absent	absent	absent	no	absent	1	2000
56e77a8f38f932000a86e118	256734	2	main	z	33	absent	absent	absent	no	absent	1	2000
56e77a8f38f932000a86e118	258632	2	main	z	34	circle	local	RVF	yes	present	1	932
56e77a8f38f932000a86e118	260727	2	main	z	35	square	global	LVF	yes	present	1	827
56e77a8f38f932000a86e118	263701	2	main	z	36	absent	absent	absent	no	absent	1	2000
56e77a8f38f932000a86e118	265505	2	main	z	37	circle	local	LVF	yes	present	1	937
56e77a8f38f932000a86e118	267563	2	main	z	38	square	local	LVF	yes	present	1	913
56e77a8f38f932000a86e118	270719	2	main	z	39	absent	absent	absent	no	absent	1	2000
56e77a8f38f932000a86e118	272684	2	main	z	40	circle	local	RVF	yes	present	1	850
56e77a8f38f932000a86e118	274678	2	main	z	41	square	local	RVF	yes	present	1	943
56e77a8f38f932000a86e118	277918	2	main	z	42	absent	absent	absent	no	absent	1	2000
56e77a8f38f932000a86e118	281184	2	main	z	43	absent	absent	absent	no	absent	1	2000
56e77a8f38f932000a86e118	282979	2	main	z	44	circle	local	LVF	yes	present	1	828
56e77a8f38f932000a86e118	284897	2	main	z	45	circle	local	RVF	yes	present	1	879
56e77a8f38f932000a86e118	287886	2	main	z	46	absent	absent	absent	no	absent	1	2000
56e77a8f38f932000a86e118	289736	2	main	z	47	circle	local	RVF	yes	present	1	901
56e77a8f38f932000a86e118	292735	2	main	z	48	circle	global	RVF	yes	absent	0	2000
56e77a8f38f932000a86e118	294827	2	main	z	49	circle	local	RVF	yes	present	1	875
56e77a8f38f932000a86e118	297249	2	main	z	50	circle	global	LVF	yes	present	1	1264
56e77a8f38f932000a86e118	300352	2	main	z	51	absent	absent	absent	no	absent	1	2000
56e77a8f38f932000a86e118	303386	2	main	z	52	square	global	RVF	yes	absent	0	2000
56e77a8f38f932000a86e118	305119	2	main	z	53	circle	local	RVF	yes	present	1	833
56e77a8f38f932000a86e118	307035	2	main	z	54	square	local	LVF	yes	present	1	932
56e77a8f38f932000a86e118	309937	2	main	z	55	square	local	RVF	yes	absent	0	2000
56e77a8f38f932000a86e118	311914	2	main	z	56	circle	global	RVF	yes	present	1	895
56e77a8f38f932000a86e118	314205	2	main	z	57	square	global	RVF	yes	present	1	1336
56e77a8f38f932000a86e118	316494	2	main	z	58	square	global	LVF	yes	present	1	842
56e77a8f38f932000a86e118	318414	2	main	z	59	square	global	LVF	yes	present	1	927
56e77a8f38f932000a86e118	321386	2	main	z	60	absent	absent	absent	no	absent	1	2000
56e77a8f38f932000a86e118	323278	2	main	z	61	circle	local	LVF	yes	present	1	775
56e77a8f38f932000a86e118	325229	2	main	z	62	square	local	LVF	yes	present	1	860
56e77a8f38f932000a86e118	326989	2	main	z	63	circle	global	LVF	yes	present	1	720
56e77a8f38f932000a86e118	329954	2	main	z	64	absent	absent	absent	no	absent	1	2000
56e77a8f38f932000a86e118	331903	2	main	z	65	circle	global	LVF	yes	present	1	833
56e77a8f38f932000a86e118	333713	2	main	z	66	circle	global	LVF	yes	present	1	859
56e77a8f38f932000a86e118	336606	2	main	z	67	absent	absent	absent	no	absent	1	2000
56e77a8f38f932000a86e118	339692	2	main	z	68	circle	local	LVF	yes	present	1	803
56e77a8f38f932000a86e118	341520	2	main	z	69	circle	local	LVF	yes	present	1	832
56e77a8f38f932000a86e118	344438	2	main	z	70	square	local	RVF	yes	absent	0	2000
56e77a8f38f932000a86e118	346249	2	main	z	71	square	local	LVF	yes	present	1	928
56e77a8f38f932000a86e118	348212	2	main	z	72	square	local	LVF	yes	present	1	908
56e77a8f38f932000a86e118	350563	2	main	z	73	circle	global	RVF	yes	present	1	1326
56e77a8f38f932000a86e118	352524	2	main	z	74	circle	global	RVF	yes	present	1	903
56e77a8f38f932000a86e118	354432	2	main	z	75	square	global	LVF	yes	present	1	827
56e77a8f38f932000a86e118	356336	2	main	z	76	square	global	RVF	yes	present	1	849
56e77a8f38f932000a86e118	358100	2	main	z	77	square	global	LVF	yes	present	1	795
56e77a8f38f932000a86e118	361022	2	main	z	78	square	local	RVF	yes	absent	0	2000
56e77a8f38f932000a86e118	364022	2	main	z	79	absent	absent	absent	no	absent	1	2000
56e77a8f38f932000a86e118	365769	2	main	z	80	square	global	RVF	yes	present	1	814
56e77a8f38f932000a86e118	382698	3	practice	slash	1	square	local	LVF	yes	present	1	907
56e77a8f38f932000a86e118	385779	3	practice	slash	2	square	global	LVF	yes	present	1	905
56e77a8f38f932000a86e118	388742	3	practice	slash	3	square	global	RVF	yes	present	1	868
56e77a8f38f932000a86e118	391661	3	practice	slash	4	square	global	LVF	yes	present	1	887
56e77a8f38f932000a86e118	394470	3	practice	slash	5	circle	global	RVF	yes	present	1	896
56e77a8f38f932000a86e118	398591	3	practice	slash	6	absent	absent	absent	no	absent	1	2000
56e77a8f38f932000a86e118	401634	3	practice	slash	7	circle	global	LVF	yes	present	1	809
56e77a8f38f932000a86e118	406042	3	practice	slash	8	absent	absent	absent	no	absent	1	2000
56e77a8f38f932000a86e118	408995	3	practice	slash	9	circle	local	RVF	yes	present	1	972
56e77a8f38f932000a86e118	412014	3	practice	slash	10	circle	global	RVF	yes	present	1	956
56e77a8f38f932000a86e118	415174	3	practice	slash	11	circle	local	RVF	yes	present	1	1151
56e77a8f38f932000a86e118	419274	3	practice	slash	12	absent	absent	absent	no	absent	1	2000
56e77a8f38f932000a86e118	422382	3	practice	slash	13	square	local	LVF	yes	present	1	924
56e77a8f38f932000a86e118	425442	3	practice	slash	14	circle	global	LVF	yes	present	1	900
56e77a8f38f932000a86e118	429543	3	practice	slash	15	absent	absent	absent	no	absent	1	2000
56e77a8f38f932000a86e118	432642	3	practice	slash	16	circle	local	RVF	yes	present	1	982
56e77a8f38f932000a86e118	436438	4	main	slash	1	circle	global	RVF	yes	present	1	846
56e77a8f38f932000a86e118	438543	4	main	slash	2	square	local	LVF	yes	present	1	734
56e77a8f38f932000a86e118	440469	4	main	slash	3	square	global	RVF	yes	present	1	827
56e77a8f38f932000a86e118	442485	4	main	slash	4	square	global	RVF	yes	present	1	894
56e77a8f38f932000a86e118	444468	4	main	slash	5	circle	global	LVF	yes	present	1	842
56e77a8f38f932000a86e118	446438	4	main	slash	6	circle	local	LVF	yes	present	1	763
56e77a8f38f932000a86e118	448447	4	main	slash	7	circle	local	LVF	yes	present	1	821
56e77a8f38f932000a86e118	451709	4	main	slash	8	absent	absent	absent	no	absent	1	2000
56e77a8f38f932000a86e118	454476	4	main	slash	9	circle	global	LVF	yes	present	1	634
56e77a8f38f932000a86e118	456721	4	main	slash	10	circle	global	RVF	yes	present	1	846
56e77a8f38f932000a86e118	460010	4	main	slash	11	absent	absent	absent	no	absent	1	2000
56e77a8f38f932000a86e118	463093	4	main	slash	12	absent	absent	absent	no	absent	1	2000
56e77a8f38f932000a86e118	466060	4	main	slash	13	absent	absent	absent	no	absent	1	2000
56e77a8f38f932000a86e118	467932	4	main	slash	14	circle	global	RVF	yes	present	1	806
56e77a8f38f932000a86e118	470746	4	main	slash	15	square	global	RVF	yes	present	1	1586
56e77a8f38f932000a86e118	474159	4	main	slash	16	absent	absent	absent	no	absent	1	2000
56e77a8f38f932000a86e118	476260	4	main	slash	17	square	local	RVF	yes	present	1	883
56e77a8f38f932000a86e118	478847	4	main	slash	18	circle	global	LVF	yes	present	1	887
56e77a8f38f932000a86e118	481042	4	main	slash	19	circle	local	LVF	yes	present	1	832
56e77a8f38f932000a86e118	484143	4	main	slash	20	absent	absent	absent	no	absent	1	2000
56e77a8f38f932000a86e118	487195	4	main	slash	21	absent	absent	absent	no	absent	1	2000
56e77a8f38f932000a86e118	488913	4	main	slash	22	square	global	LVF	yes	present	1	820
56e77a8f38f932000a86e118	491039	4	main	slash	23	circle	local	RVF	yes	present	1	779
56e77a8f38f932000a86e118	493279	4	main	slash	24	square	local	LVF	yes	present	1	869
56e77a8f38f932000a86e118	495571	4	main	slash	25	square	local	RVF	yes	present	1	943
56e77a8f38f932000a86e118	497726	4	main	slash	26	square	global	LVF	yes	present	1	781
56e77a8f38f932000a86e118	499729	4	main	slash	27	circle	local	LVF	yes	present	1	819
56e77a8f38f932000a86e118	502182	4	main	slash	28	circle	local	RVF	yes	present	1	855
56e77a8f38f932000a86e118	504506	4	main	slash	29	square	local	LVF	yes	present	1	862
56e77a8f38f932000a86e118	507010	4	main	slash	30	square	local	LVF	yes	present	1	883
56e77a8f38f932000a86e118	509284	4	main	slash	31	circle	local	RVF	yes	present	1	857
56e77a8f38f932000a86e118	511777	4	main	slash	32	square	global	LVF	yes	present	1	900
56e77a8f38f932000a86e118	514205	4	main	slash	33	circle	global	RVF	yes	present	1	843
56e77a8f38f932000a86e118	516445	4	main	slash	34	square	global	LVF	yes	present	1	883
56e77a8f38f932000a86e118	518848	4	main	slash	35	square	local	RVF	yes	present	1	1052
56e77a8f38f932000a86e118	521095	4	main	slash	36	circle	global	LVF	yes	present	1	883
56e77a8f38f932000a86e118	523333	4	main	slash	37	circle	local	RVF	yes	present	1	955
56e77a8f38f932000a86e118	525626	4	main	slash	38	square	local	RVF	yes	present	1	914
56e77a8f38f932000a86e118	528784	4	main	slash	39	square	global	RVF	yes	present	1	1821
56e77a8f38f932000a86e118	532145	4	main	slash	40	absent	absent	absent	no	absent	1	2000
56e77a8f38f932000a86e118	534853	4	main	slash	41	circle	local	RVF	yes	present	1	1524
56e77a8f38f932000a86e118	537134	4	main	slash	42	circle	local	LVF	yes	present	1	1138
56e77a8f38f932000a86e118	539516	4	main	slash	43	circle	global	LVF	yes	present	1	1053
56e77a8f38f932000a86e118	541779	4	main	slash	44	circle	global	LVF	yes	present	1	916
56e77a8f38f932000a86e118	545146	4	main	slash	45	absent	absent	absent	no	absent	1	2000
56e77a8f38f932000a86e118	547022	4	main	slash	46	circle	local	LVF	yes	present	1	776
56e77a8f38f932000a86e118	549432	4	main	slash	47	square	local	RVF	yes	present	1	935
56e77a8f38f932000a86e118	552746	4	main	slash	48	absent	absent	absent	no	absent	1	2000
56e77a8f38f932000a86e118	556047	4	main	slash	49	circle	global	LVF	yes	absent	0	2000
56e77a8f38f932000a86e118	558474	4	main	slash	50	circle	local	RVF	yes	present	1	1027
56e77a8f38f932000a86e118	561613	4	main	slash	51	absent	absent	absent	no	absent	1	2000
56e77a8f38f932000a86e118	563474	4	main	slash	52	square	global	RVF	yes	present	1	878
56e77a8f38f932000a86e118	566680	4	main	slash	53	absent	absent	absent	no	absent	1	2000
56e77a8f38f932000a86e118	569733	4	main	slash	54	absent	absent	absent	no	absent	1	2000
56e77a8f38f932000a86e118	571527	4	main	slash	55	circle	local	RVF	yes	present	1	813
56e77a8f38f932000a86e118	574714	4	main	slash	56	absent	absent	absent	no	absent	1	2000
56e77a8f38f932000a86e118	576623	4	main	slash	57	square	local	LVF	yes	present	1	775
56e77a8f38f932000a86e118	578539	4	main	slash	58	circle	local	LVF	yes	present	1	908
56e77a8f38f932000a86e118	580649	4	main	slash	59	square	local	RVF	yes	present	1	884
56e77a8f38f932000a86e118	582591	4	main	slash	60	square	global	RVF	yes	present	1	793
56e77a8f38f932000a86e118	584697	4	main	slash	61	square	local	RVF	yes	present	1	899
56e77a8f38f932000a86e118	586924	4	main	slash	62	square	global	LVF	yes	present	1	892
56e77a8f38f932000a86e118	588958	4	main	slash	63	circle	global	RVF	yes	present	1	826
56e77a8f38f932000a86e118	591107	4	main	slash	64	square	global	LVF	yes	present	1	826
56e77a8f38f932000a86e118	593289	4	main	slash	65	circle	local	RVF	yes	present	1	974
56e77a8f38f932000a86e118	595377	4	main	slash	66	square	global	LVF	yes	present	1	896
56e77a8f38f932000a86e118	597424	4	main	slash	67	circle	global	RVF	yes	present	1	824
56e77a8f38f932000a86e118	599582	4	main	slash	68	circle	local	LVF	yes	present	1	884
56e77a8f38f932000a86e118	601763	4	main	slash	69	square	local	LVF	yes	present	1	947
56e77a8f38f932000a86e118	603735	4	main	slash	70	square	global	LVF	yes	present	1	904
56e77a8f38f932000a86e118	605725	4	main	slash	71	circle	global	LVF	yes	present	1	843
56e77a8f38f932000a86e118	607442	4	main	slash	72	square	local	LVF	yes	present	1	706
56e77a8f38f932000a86e118	609567	4	main	slash	73	square	local	LVF	yes	present	1	969
56e77a8f38f932000a86e118	612817	4	main	slash	74	square	local	RVF	yes	absent	0	2000
56e77a8f38f932000a86e118	614985	4	main	slash	75	circle	global	RVF	yes	present	1	1169
56e77a8f38f932000a86e118	617146	4	main	slash	76	square	global	RVF	yes	present	1	931
56e77a8f38f932000a86e118	620317	4	main	slash	77	absent	absent	absent	no	absent	1	2000
56e77a8f38f932000a86e118	622223	4	main	slash	78	circle	global	RVF	yes	present	1	823
56e77a8f38f932000a86e118	623979	4	main	slash	79	square	global	RVF	yes	present	1	846
56e77a8f38f932000a86e118	627000	4	main	slash	80	absent	absent	absent	no	absent	1	2000
