subject	time_elapsed_ms	blocknum	block_type	block_response	trialnum	target	level	field	target_present	response	correct	rt
581bd344930a280001062c90	181742	1	practice	slash	1	absent	absent	absent	no	absent	1	2000
581bd344930a280001062c90	185799	1	practice	slash	2	circle	global	RVF	yes	present	1	900
581bd344930a280001062c90	189504	1	practice	slash	3	circle	local	RVF	yes	present	1	1004
581bd344930a280001062c90	194947	1	practice	slash	4	square	global	LVF	yes	absent	0	2000
581bd344930a280001062c90	199241	1	practice	slash	5	square	local	LVF	yes	absent	0	2000
581bd344930a280001062c90	203759	1	practice	slash	6	absent	absent	absent	no	absent	1	2000
581bd344930a280001062c90	208162	1	practice	slash	7	square	global	RVF	yes	absent	0	2000
581bd344930a280001062c90	211316	1	practice	slash	8	circle	global	RVF	yes	present	1	886
581bd344930a280001062c90	214591	1	practice	slash	9	circle	global	LVF	yes	present	1	885
581bd344930a280001062c90	218831	1	practice	slash	10	absent	absent	absent	no	absent	1	2000
581bd344930a280001062c90	221954	1	practice	slash	11	circle	global	LVF	yes	present	1	968
581bd344930a280001062c90	226308	1	practice	slash	12	square	global	LVF	yes	absent	0	2000
581bd344930a280001062c90	229728	1	practice	slash	13	square	local	LVF	yes	present	1	1132
581bd344930a280001062c90	233044	1	practice	slash	14	circle	local	RVF	yes	present	1	840
581bd344930a280001062c90	236872	1	practice	slash	15	absent	absent	absent	no	present	0	1479
581bd344930a280001062c90	240301	1	practice	slash	16	circle	local	RVF	yes	present	1	1043
581bd344930a280001062c90	254286	2	main	slash	1	square	global	RVF	yes	absent	0	2000
581bd344930a280001062c90	256026	2	main	slash	2	circle	global	LVF	yes	present	1	554
581bd344930a280001062c90	258858	2	main	slash	3	square	local	RVF	yes	present	1	853
581bd344930a280001062c90	262522	2	main	slash	4	absent	absent	absent	no	absent	1	2000
581bd344930a280001062c90	264828	2	main	slash	5	square	local	LVF	yes	present	1	999
581bd344930a280001062c90	267484	2	main	slash	6	square	local	LVF	yes	present	1	886
581bd344930a280001062c90	270328	2	main	slash	7	circle	local	LVF	yes	present	1	881
581bd344930a280001062c90	272711	2	main	slash	8	circle	local	RVF	yes	present	1	822
581bd344930a280001062c90	275227	2	main	slash	9	circle	local	LVF	yes	present	1	825
581bd344930a280001062c90	277782	2	main	slash	10	circle	global	RVF	yes	present	1	1143
581bd344930a280001062c90	281249	2	main	slash	11	square	global	LVF	yes	present	1	1679
581bd344930a280001062c90	284681	2	main	slash	12	absent	absent	absent	no	absent	1	2000
581bd344930a280001062c90	286685	2	main	slash	13	square	global	LVF	yes	present	1	854
581bd344930a280001062c90	290220	2	main	slash	14	square	local	RVF	yes	present	1	1020
581bd344930a280001062c90	292854	2	main	slash	15	absent	absent	absent	no	present	0	1173
581bd344930a280001062c90	295114	2	main	slash	16	circle	global	LVF	yes	present	1	902
581bd344930a280001062c90	298834	2	main	slash	17	absent	absent	absent	no	absent	1	2000
581bd344930a280001062c90	300898	2	main	slash	18	circle	global	RVF	yes	present	1	863
581bd344930a280001062c90	303356	2	main	slash	19	circle	local	RVF	yes	present	1	893
581bd344930a280001062c90	305891	2	main	slash	20	circle	global	LVF	yes	present	1	914
581bd344930a280001062c90	309247	2	main	slash	21	circle	local	LVF	yes	present	1	978
581bd344930a280001062c90	312912	2	main	slash	22	square	global	RVF	yes	present	1	1160
581bd344930a280001062c90	316879	2	main	slash	23	absent	absent	absent	no	absent	1	2000
581bd344930a280001062c90	319233	2	main	slash	24	circle	global	RVF	yes	present	1	871
581bd344930a280001062c90	322151	2	main	slash	25	square	local	LVF	yes	present	1	1051
581bd344930a280001062c90	324649	2	main	slash	26	square	local	LVF	yes	present	1	913
581bd344930a280001062c90	328117	2	main	slash	27	absent	absent	absent	no	absent	1	2000
581bd344930a280001062c90	330230	2	main	slash	28	square	global	LVF	yes	present	1	938
581bd344930a280001062c90	332811	2	main	slash	29	square	local	RVF	yes	present	1	909
581bd344930a280001062c90	335328	2	main	slash	30	square	global	RVF	yes	present	1	1029
581bd344930a280001062c90	338718	2	main	slash	31	square	global	RVF	yes	absent	0	2000
581bd344930a280001062c90	341209	2	main	slash	32	circle	local	RVF	yes	present	1	917
581bd344930a280001062c90	343675	2	main	slash	33	circle	global	LVF	yes	present	1	770
581bd344930a280001062c90	346918	2	main	slash	34	absent	absent	absent	no	absent	1	2000
581bd344930a280001062c90	349060	2	main	slash	35	square	local	RVF	yes	present	1	740
581bd344930a280001062c90	351219	2	main	slash	36	circle	global	RVF	yes	present	1	603
581bd344930a280001062c90	354485	2	main	slash	37	absent	absent	absent	no	absent	1	2000
581bd344930a280001062c90	356559	2	main	slash	38	square	global	LVF	yes	present	1	579
581bd344930a280001062c90	358313	2	main	slash	39	circle	local	RVF	yes	present	1	605
581bd344930a280001062c90	360166	2	main	slash	40	circle	local	LVF	yes	present	1	676
581bd344930a280001062c90	362029	2	main	slash	41	circle	global	RVF	yes	present	1	573
581bd344930a280001062c90	364435	2	main	slash	42	square	global	RVF	yes	present	1	1123
581bd344930a280001062c90	366457	2	main	slash	43	circle	global	LVF	yes	present	1	788
581bd344930a280001062c90	368336	2	main	slash	44	circle	global	LVF	yes	present	1	671
581bd344930a280001062c90	370130	2	main	slash	45	circle	local	LVF	yes	present	1	666
581bd344930a280001062c90	373145	2	main	slash	46	absent	absent	absent	no	absent	1	2000
581bd344930a280001062c90	375097	2	main	slash	47	circle	global	RVF	yes	present	1	566
581bd344930a280001062c90	377240	2	main	slash	48	circle	local	RVF	yes	present	1	840
581bd344930a280001062c90	380339	2	main	slash	49	absent	absent	absent	no	absent	1	2000
581bd344930a280001062c90	382104	2	main	slash	50	square	local	RVF	yes	present	1	693
581bd344930a280001062c90	384485	2	main	slash	51	square	global	RVF	yes	present	1	877
581bd344930a280001062c90	386921	2	main	slash	52	square	local	LVF	yes	present	1	1029
581bd344930a280001062c90	389135	2	main	slash	53	circle	local	LVF	yes	present	1	996
581bd344930a280001062c90	391530	2	main	slash	54	circle	local	RVF	yes	present	1	1048
581bd344930a280001062c90	394310	2	main	slash	55	circle	local	RVF	yes	present	1	1425
581bd344930a280001062c90	397774	2	main	slash	56	absent	absent	absent	no	absent	1	2000
581bd344930a280001062c90	399840	2	main	slash	57	square	local	RVF	yes	present	1	751
581bd344930a280001062c90	402137	2	main	slash	58	circle	global	RVF	yes	present	1	856
581bd344930a280001062c90	405466	2	main	slash	59	absent	absent	absent	no	absent	1	2000
581bd344930a280001062c90	407357	2	main	slash	60	circle	local	LVF	yes	present	1	775
581bd344930a280001062c90	410585	2	main	slash	61	absent	absent	absent	no	absent	1	2000
581bd344930a280001062c90	412734	2	main	slash	62	circle	global	LVF	yes	present	1	859
581bd344930a280001062c90	415095	2	main	slash	63	square	global	LVF	yes	present	1	956
581bd344930a280001062c90	417494	2	main	slash	64	square	local	RVF	yes	present	1	1007
581bd344930a280001062c90	419609	2	main	slash	65	circle	local	LVF	yes	present	1	729
581bd344930a280001062c90	421889	2	main	slash	66	square	global	RVF	yes	present	1	974
581bd344930a280001062c90	424049	2	main	slash	67	square	local	RVF	yes	present	1	843
581bd344930a280001062c90	426369	2	main	slash	68	square	global	RVF	yes	present	1	944
581bd344930a280001062c90	428617	2	main	slash	69	circle	local	RVF	yes	present	1	597
581bd344930a280001062c90	430856	2	main	slash	70	square	local	LVF	yes	present	1	819
581bd344930a280001062c90	433066	2	main	slash	71	square	global	LVF	yes	present	1	814
581bd344930a280001062c90	436533	2	main	slash	72	absent	absent	absent	no	absent	1	2000
581bd344930a280001062c90	439823	2	main	slash	73	absent	absent	absent	no	absent	1	2000
581bd344930a280001062c90	441685	2	main	slash	74	square	global	LVF	yes	present	1	753
581bd344930a280001062c90	443740	2	main	slash	75	square	local	LVF	yes	present	1	786
581bd344930a280001062c90	446012	2	main	slash	76	circle	global	LVF	yes	present	1	899
581bd344930a280001062c90	448450	2	main	slash	77	circle	global	RVF	yes	present	1	1119
581bd344930a280001062c90	450762	2	main	slash	78	absent	absent	absent	no	present	0	925
581bd344930a280001062c90	452852	2	main	slash	79	square	global	LVF	yes	present	1	748
581bd344930a280001062c90	454630	2	main	slash	80	square	local	LVF	yes	present	1	662
581bd344930a280001062c90	485302	3	practice	z	1	square	global	LVF	yes	present	1	634
581bd344930a280001062c90	488163	3	practice	z	2	circle	local	RVF	yes	present	1	730
581bd344930a280001062c90	492240	3	practice	z	3	absent	absent	absent	no	absent	1	2000
581bd344930a280001062c90	495176	3	practice	z	4	square	global	RVF	yes	present	1	878
581bd344930a280001062c90	499350	3	practice	z	5	absent	absent	absent	no	absent	1	2000
581bd344930a280001062c90	501913	3	practice	z	6	absent	absent	absent	no	present	0	839
581bd344930a280001062c90	504986	3	practice	z	7	square	global	LVF	yes	present	1	763
581bd344930a280001062c90	508062	3	practice	z	8	circle	global	RVF	yes	present	1	839
581bd344930a280001062c90	510710	3	practice	z	9	circle	global	LVF	yes	present	1	699
581bd344930a280001062c90	513570	3	practice	z	10	circle	global	RVF	yes	present	1	668
581bd344930a280001062c90	516399	3	practice	z	11	circle	local	RVF	yes	present	1	638
581bd344930a280001062c90	519294	3	practice	z	12	circle	local	RVF	yes	present	1	726
581bd344930a280001062c90	522803	3	practice	z	13	square	local	LVF	yes	present	1	1344
581bd344930a280001062c90	525527	3	practice	z	14	square	local	LVF	yes	present	1	829
581bd344930a280001062c90	529776	3	practice	z	15	absent	absent	absent	no	absent	1	2000
581bd344930a280001062c90	532820	3	practice	z	16	circle	global	LVF	yes	present	1	697
581bd344930a280001062c90	541906	4	main	z	1	absent	absent	absent	no	absent	1	2000
581bd344930a280001062c90	543293	4	main	z	2	circle	local	RVF	yes	present	1	496
581bd344930a280001062c90	545157	4	main	z	3	circle	local	LVF	yes	present	1	653
581bd344930a280001062c90	547461	4	main	z	4	absent	absent	absent	no	present	0	982
581bd344930a280001062c90	550659	4	main	z	5	absent	absent	absent	no	absent	1	2000
581bd344930a280001062c90	552454	4	main	z	6	circle	local	LVF	yes	present	1	510
581bd344930a280001062c90	554254	4	main	z	7	square	global	LVF	yes	present	1	621
581bd344930a280001062c90	556113	4	main	z	8	square	local	RVF	yes	present	1	717
581bd344930a280001062c90	557984	4	main	z	9	square	local	LVF	yes	present	1	749
581bd344930a280001062c90	559846	4	main	z	10	circle	local	RVF	yes	present	1	696
581bd344930a280001062c90	561729	4	main	z	11	square	global	LVF	yes	present	1	661
581bd344930a280001062c90	563416	4	main	z	12	circle	global	RVF	yes	present	1	586
581bd344930a280001062c90	565456	4	main	z	13	square	global	RVF	yes	present	1	956
581bd344930a280001062c90	566983	4	main	z	14	circle	global	LVF	yes	present	1	516
581bd344930a280001062c90	568664	4	main	z	15	circle	global	LVF	yes	present	1	545
581bd344930a280001062c90	570648	4	main	z	16	circle	local	RVF	yes	present	1	815
581bd344930a280001062c90	572548	4	main	z	17	square	local	RVF	yes	present	1	649
581bd344930a280001062c90	574844	4	main	z	18	circle	global	LVF	yes	present	1	1218
581bd344930a280001062c90	577857	4	main	z	19	absent	absent	absent	no	absent	1	2000
581bd344930a280001062c90	579404	4	main	z	20	square	global	LVF	yes	present	1	592
581bd344930a280001062c90	582547	4	main	z	21	absent	absent	absent	no	absent	1	2000
581bd344930a280001062c90	584131	4	main	z	22	square	global	RVF	yes	present	1	598
581bd344930a280001062c90	586023	4	main	z	23	square	local	RVF	yes	present	1	782
581bd344930a280001062c90	589177	4	main	z	24	absent	absent	absent	no	absent	1	2000
581bd344930a280001062c90	591160	4	main	z	25	absent	absent	absent	no	present	0	686
581bd344930a280001062c90	594939	4	main	z	26	absent	absent	absent	no	absent	1	2000
581bd344930a280001062c90	596720	4	main	z	27	circle	global	LVF	yes	present	1	622
581bd344930a280001062c90	598808	4	main	z	28	square	global	RVF	yes	present	1	924
581bd344930a280001062c90	601076	4	main	z	29	circle	local	RVF	yes	present	1	1085
581bd344930a280001062c90	603396	4	main	z	30	circle	local	LVF	yes	present	1	1045
581bd344930a280001062c90	605762	4	main	z	31	square	local	RVF	yes	present	1	764
581bd344930a280001062c90	607875	4	main	z	32	square	local	LVF	yes	present	1	809
581bd344930a280001062c90	610047	4	main	z	33	square	global	LVF	yes	present	1	886
581bd344930a280001062c90	612422	4	main	z	34	square	local	LVF	yes	present	1	1171
581bd344930a280001062c90	614817	4	main	z	35	square	global	RVF	yes	present	1	908
581bd344930a280001062c90	617392	4	main	z	36	circle	global	RVF	yes	present	1	957
581bd344930a280001062c90	619950	4	main	z	37	square	local	LVF	yes	present	1	1025
581bd344930a280001062c90	622303	4	main	z	38	circle	global	RVF	yes	present	1	910
581bd344930a280001062c90	624488	4	main	z	39	circle	local	LVF	yes	present	1	754
581bd344930a280001062c90	626791	4	main	z	40	circle	global	RVF	yes	present	1	688
581bd344930a280001062c90	630101	4	main	z	41	absent	absent	absent	no	absent	1	2000
581bd344930a280001062c90	631652	4	main	z	42	square	local	RVF	yes	present	1	602
581bd344930a280001062c90	634285	4	main	z	43	square	local	LVF	yes	present	1	1234
581bd344930a280001062c90	637073	4	main	z	44	square	global	RVF	yes	present	1	1283
581bd344930a280001062c90	639370	4	main	z	45	square	global	RVF	yes	present	1	876
581bd344930a280001062c90	641345	4	main	z	46	circle	local	LVF	yes	present	1	722
581bd344930a280001062c90	644694	4	main	z	47	absent	absent	absent	no	absent	1	2000
581bd344930a280001062c90	646379	4	main	z	48	square	local	RVF	yes	present	1	707
581bd344930a280001062c90	648291	4	main	z	49	square	local	RVF	yes	present	1	626
581bd344930a280001062c90	650954	4	main	z	50	absent	absent	absent	no	present	0	1342
581bd344930a280001062c90	652698	4	main	z	51	circle	local	RVF	yes	present	1	717
581bd344930a280001062c90	655821	4	main	z	52	absent	absent	absent	no	absent	1	2000
581bd344930a280001062c90	658731	4	main	z	53	absent	absent	absent	no	absent	1	2000
581bd344930a280001062c90	660412	4	main	z	54	square	local	LVF	yes	present	1	693
581bd344930a280001062c90	662348	4	main	z	55	circle	global	RVF	yes	present	1	655
581bd344930a280001062c90	664834	4	main	z	56	square	global	LVF	yes	present	1	1108
581bd344930a280001062c90	666676	4	main	z	57	square	global	LVF	yes	present	1	743
581bd344930a280001062c90	668623	4	main	z	58	circle	global	RVF	yes	present	1	657
581bd344930a280001062c90	670561	4	main	z	59	circle	global	LVF	yes	present	1	682
581bd344930a280001062c90	673637	4	main	z	60	absent	absent	absent	no	absent	1	2000
581bd344930a280001062c90	675151	4	main	z	61	circle	global	LVF	yes	present	1	570
581bd344930a280001062c90	677190	4	main	z	62	circle	local	RVF	yes	present	1	732
581bd344930a280001062c90	679154	4	main	z	63	circle	global	RVF	yes	present	1	719
581bd344930a280001062c90	681104	4	main	z	64	square	local	LVF	yes	present	1	763
581bd344930a280001062c90	683498	4	main	z	65	square	global	LVF	yes	present	1	1013
581bd344930a280001062c90	685687	4	main	z	66	circle	global	LVF	yes	present	1	603
581bd344930a280001062c90	687574	4	main	z	67	circle	local	RVF	yes	present	1	623
581bd344930a280001062c90	690129	4	main	z	68	absent	absent	absent	no	present	0	1274
581bd344930a280001062c90	692617	4	main	z	69	square	global	RVF	yes	present	1	1486
581bd344930a280001062c90	694426	4	main	z	70	circle	local	RVF	yes	present	1	802
581bd344930a280001062c90	696267	4	main	z	71	circle	local	LVF	yes	present	1	588
581bd344930a280001062c90	698226	4	main	z	72	circle	global	LVF	yes	present	1	758
581bd344930a280001062c90	700181	4	main	z	73	circle	local	LVF	yes	present	1	697
581bd344930a280001062c90	701946	4	main	z	74	circle	local	LVF	yes	present	1	532
581bd344930a280001062c90	703897	4	main	z	75	square	local	LVF	yes	present	1	715
581bd344930a280001062c90	705997	4	main	z	76	circle	global	RVF	yes	present	1	821
581bd344930a280001062c90	708039	4	main	z	77	square	local	RVF	yes	present	1	899
581bd344930a280001062c90	710210	4	main	z	78	square	global	LVF	yes	present	1	910
581bd344930a280001062c90	713483	4	main	z	79	absent	absent	absent	no	absent	1	2000
581bd344930a280001062c90	716092	4	main	z	80	square	global	RVF	yes	present	1	1638
