subject	time_elapsed_ms	blocknum	block_type	block_response	trialnum	target	level	field	target_present	response	correct	rt
5cdad620eae6f70019d4e950	126235	1	practice	slash	1	circle	local	RVF	yes	absent	0	2000
5cdad620eae6f70019d4e950	131252	1	practice	slash	2	absent	absent	absent	no	absent	1	2000
5cdad620eae6f70019d4e950	134253	1	practice	slash	3	circle	global	RVF	yes	present	1	967
5cdad620eae6f70019d4e950	138320	1	practice	slash	4	square	local	LVF	yes	absent	0	2000
5cdad620eae6f70019d4e950	141388	1	practice	slash	5	circle	global	RVF	yes	present	1	1070
5cdad620eae6f70019d4e950	144013	1	practice	slash	6	circle	global	LVF	yes	present	1	727
5cdad620eae6f70019d4e950	146692	1	practice	slash	7	square	global	RVF	yes	present	1	757
5cdad620eae6f70019d4e950	149741	1	practice	slash	8	circle	local	RVF	yes	present	1	1055
5cdad620eae6f70019d4e950	153702	1	practice	slash	9	absent	absent	absent	no	absent	1	2000
5cdad620eae6f70019d4e950	156413	1	practice	slash	10	square	global	LVF	yes	present	1	710
5cdad620eae6f70019d4e950	160452	1	practice	slash	11	absent	absent	absent	no	absent	1	2000
5cdad620eae6f70019d4e950	163853	1	practice	slash	12	square	local	LVF	yes	present	1	1350
5cdad620eae6f70019d4e950	166733	1	practice	slash	13	circle	local	RVF	yes	present	1	931
5cdad620eae6f70019d4e950	169429	1	practice	slash	14	circle	global	LVF	yes	present	1	777
5cdad620eae6f70019d4e950	172180	1	practice	slash	15	square	global	LVF	yes	present	1	829
5cdad620eae6f70019d4e950	176035	1	practice	slash	16	absent	absent	absent	no	absent	1	2000
5cdad620eae6f70019d4e950	183010	2	main	slash	1	square	global	LVF	yes	present	1	477
5cdad620eae6f70019d4e950	186883	2	main	slash	2	absent	absent	absent	no	absent	1	2000
5cdad620eae6f70019d4e950	188675	2	main	slash	3	square	global	LVF	yes	present	1	741
5cdad620eae6f70019d4e950	191866	2	main	slash	4	absent	absent	absent	no	absent	1	2000
5cdad620eae6f70019d4e950	193691	2	main	slash	5	square	local	RVF	yes	present	1	891
5cdad620eae6f70019d4e950	195410	2	main	slash	6	square	global	LVF	yes	present	1	727
5cdad620eae6f70019d4e950	197194	2	main	slash	7	circle	local	LVF	yes	present	1	711
5cdad620eae6f70019d4e950	199003	2	main	slash	8	circle	global	LVF	yes	present	1	837
5cdad620eae6f70019d4e950	200738	2	main	slash	9	square	global	RVF	yes	present	1	755
5cdad620eae6f70019d4e950	202466	2	main	slash	10	circle	local	RVF	yes	present	1	733
5cdad620eae6f70019d4e950	204690	2	main	slash	11	square	local	RVF	yes	present	1	1241
5cdad620eae6f70019d4e950	207186	2	main	slash	12	circle	local	RVF	yes	present	1	1620
5cdad620eae6f70019d4e950	208906	2	main	slash	13	circle	global	RVF	yes	present	1	806
5cdad620eae6f70019d4e950	210643	2	main	slash	14	circle	local	LVF	yes	present	1	810
5cdad620eae6f70019d4e950	212410	2	main	slash	15	circle	local	LVF	yes	present	1	794
5cdad620eae6f70019d4e950	214250	2	main	slash	16	square	global	RVF	yes	present	1	834
5cdad620eae6f70019d4e950	216010	2	main	slash	17	circle	global	RVF	yes	present	1	777
5cdad620eae6f70019d4e950	219033	2	main	slash	18	square	local	RVF	yes	absent	0	2000
5cdad620eae6f70019d4e950	222100	2	main	slash	19	absent	absent	absent	no	absent	1	2000
5cdad620eae6f70019d4e950	223698	2	main	slash	20	circle	global	RVF	yes	present	1	664
5cdad620eae6f70019d4e950	226137	2	main	slash	21	square	local	LVF	yes	present	1	1304
5cdad620eae6f70019d4e950	227818	2	main	slash	22	circle	global	LVF	yes	present	1	802
5cdad620eae6f70019d4e950	230833	2	main	slash	23	square	local	LVF	yes	absent	0	2000
5cdad620eae6f70019d4e950	232554	2	main	slash	24	square	local	RVF	yes	present	1	788
5cdad620eae6f70019d4e950	234514	2	main	slash	25	square	local	LVF	yes	present	1	898
5cdad620eae6f70019d4e950	236194	2	main	slash	26	square	global	LVF	yes	present	1	744
5cdad620eae6f70019d4e950	237939	2	main	slash	27	circle	local	LVF	yes	present	1	756
5cdad620eae6f70019d4e950	240933	2	main	slash	28	absent	absent	absent	no	absent	1	2000
5cdad620eae6f70019d4e950	243933	2	main	slash	29	absent	absent	absent	no	absent	1	2000
5cdad620eae6f70019d4e950	245514	2	main	slash	30	circle	global	LVF	yes	present	1	631
5cdad620eae6f70019d4e950	247146	2	main	slash	31	square	global	RVF	yes	present	1	596
5cdad620eae6f70019d4e950	248642	2	main	slash	32	circle	global	LVF	yes	present	1	576
5cdad620eae6f70019d4e950	250258	2	main	slash	33	circle	global	RVF	yes	present	1	725
5cdad620eae6f70019d4e950	253166	2	main	slash	34	square	local	LVF	yes	absent	0	2000
5cdad620eae6f70019d4e950	256216	2	main	slash	35	absent	absent	absent	no	absent	1	2000
5cdad620eae6f70019d4e950	257917	2	main	slash	36	square	global	RVF	yes	present	1	665
5cdad620eae6f70019d4e950	302698	2	main	slash	37	circle	local	RVF	yes	present	1	615
5cdad620eae6f70019d4e950	304411	2	main	slash	38	circle	local	RVF	yes	present	1	645
5cdad620eae6f70019d4e950	307433	2	main	slash	39	absent	absent	absent	no	absent	1	2000
5cdad620eae6f70019d4e950	310617	2	main	slash	40	absent	absent	absent	no	absent	1	2000
5cdad620eae6f70019d4e950	312042	2	main	slash	41	square	global	RVF	yes	present	1	476
5cdad620eae6f70019d4e950	313603	2	main	slash	42	circle	global	LVF	yes	present	1	603
5cdad620eae6f70019d4e950	315163	2	main	slash	43	circle	global	RVF	yes	present	1	679
5cdad620eae6f70019d4e950	316683	2	main	slash	44	circle	local	RVF	yes	present	1	699
5cdad620eae6f70019d4e950	318170	2	main	slash	45	circle	local	RVF	yes	present	1	604
5cdad620eae6f70019d4e950	319754	2	main	slash	46	square	global	LVF	yes	present	1	705
5cdad620eae6f70019d4e950	321426	2	main	slash	47	circle	global	RVF	yes	present	1	693
5cdad620eae6f70019d4e950	324383	2	main	slash	48	absent	absent	absent	no	absent	1	2000
5cdad620eae6f70019d4e950	343550	2	main	slash	49	absent	absent	absent	no	absent	1	2000
5cdad620eae6f70019d4e950	345050	2	main	slash	50	square	local	LVF	yes	present	1	601
5cdad620eae6f70019d4e950	347115	2	main	slash	51	square	global	LVF	yes	present	1	531
5cdad620eae6f70019d4e950	348594	2	main	slash	52	circle	local	LVF	yes	present	1	595
5cdad620eae6f70019d4e950	350299	2	main	slash	53	square	local	RVF	yes	present	1	848
5cdad620eae6f70019d4e950	351755	2	main	slash	54	square	global	RVF	yes	present	1	555
5cdad620eae6f70019d4e950	354583	2	main	slash	55	square	local	LVF	yes	absent	0	2000
5cdad620eae6f70019d4e950	355868	2	main	slash	56	circle	global	LVF	yes	present	1	516
5cdad620eae6f70019d4e950	358766	2	main	slash	57	absent	absent	absent	no	absent	1	2000
5cdad620eae6f70019d4e950	360322	2	main	slash	58	square	local	RVF	yes	present	1	606
5cdad620eae6f70019d4e950	361810	2	main	slash	59	circle	local	LVF	yes	present	1	594
5cdad620eae6f70019d4e950	363722	2	main	slash	60	square	local	RVF	yes	present	1	706
5cdad620eae6f70019d4e950	365226	2	main	slash	61	square	local	LVF	yes	present	1	693
5cdad620eae6f70019d4e950	368033	2	main	slash	62	absent	absent	absent	no	absent	1	2000
5cdad620eae6f70019d4e950	373555	2	main	slash	63	square	local	RVF	yes	present	1	821
5cdad620eae6f70019d4e950	375810	2	main	slash	64	circle	global	LVF	yes	present	1	1294
5cdad620eae6f70019d4e950	377514	2	main	slash	65	square	global	RVF	yes	present	1	615
5cdad620eae6f70019d4e950	379138	2	main	slash	66	circle	global	LVF	yes	present	1	738
5cdad620eae6f70019d4e950	382083	2	main	slash	67	absent	absent	absent	no	absent	1	2000
5cdad620eae6f70019d4e950	383610	2	main	slash	68	square	global	LVF	yes	present	1	610
5cdad620eae6f70019d4e950	385331	2	main	slash	69	square	local	LVF	yes	present	1	747
5cdad620eae6f70019d4e950	388216	2	main	slash	70	absent	absent	absent	no	absent	1	2000
5cdad620eae6f70019d4e950	389748	2	main	slash	71	circle	local	LVF	yes	present	1	513
5cdad620eae6f70019d4e950	392667	2	main	slash	72	absent	absent	absent	no	absent	1	2000
5cdad620eae6f70019d4e950	394474	2	main	slash	73	circle	local	RVF	yes	present	1	691
5cdad620eae6f70019d4e950	396371	2	main	slash	74	square	global	LVF	yes	present	1	671
5cdad620eae6f70019d4e950	398323	2	main	slash	75	square	global	RVF	yes	present	1	974
5cdad620eae6f70019d4e950	400123	2	main	slash	76	circle	global	RVF	yes	present	1	723
5cdad620eae6f70019d4e950	401619	2	main	slash	77	circle	local	LVF	yes	present	1	603
5cdad620eae6f70019d4e950	403186	2	main	slash	78	circle	global	RVF	yes	present	1	703
5cdad620eae6f70019d4e950	404763	2	main	slash	79	circle	local	RVF	yes	present	1	614
5cdad620eae6f70019d4e950	407650	2	main	slash	80	absent	absent	absent	no	absent	1	2000
5cdad620eae6f70019d4e950	428037	3	practice	z	1	circle	global	RVF	yes	present	1	434
5cdad620eae6f70019d4e950	430309	3	practice	z	2	square	local	LVF	yes	present	1	490
5cdad620eae6f70019d4e950	434385	3	practice	z	3	absent	absent	absent	no	absent	1	2000
5cdad620eae6f70019d4e950	436837	3	practice	z	4	circle	local	RVF	yes	present	1	467
5cdad620eae6f70019d4e950	439221	3	practice	z	5	circle	local	RVF	yes	present	1	485
5cdad620eae6f70019d4e950	441622	3	practice	z	6	circle	local	RVF	yes	present	1	470
5cdad620eae6f70019d4e950	444101	3	practice	z	7	circle	global	LVF	yes	present	1	499
5cdad620eae6f70019d4e950	446326	3	practice	z	8	square	global	LVF	yes	present	1	557
5cdad620eae6f70019d4e950	449461	3	practice	z	9	absent	absent	absent	no	present	0	1092
5cdad620eae6f70019d4e950	453352	3	practice	z	10	absent	absent	absent	no	absent	1	2000
5cdad620eae6f70019d4e950	457335	3	practice	z	11	absent	absent	absent	no	absent	1	2000
5cdad620eae6f70019d4e950	459821	3	practice	z	12	square	global	LVF	yes	present	1	552
5cdad620eae6f70019d4e950	462382	3	practice	z	13	square	global	RVF	yes	present	1	563
5cdad620eae6f70019d4e950	464925	3	practice	z	14	circle	global	RVF	yes	present	1	590
5cdad620eae6f70019d4e950	467364	3	practice	z	15	circle	global	LVF	yes	present	1	546
5cdad620eae6f70019d4e950	471252	3	practice	z	16	square	local	LVF	yes	absent	0	2000
5cdad620eae6f70019d4e950	475731	4	main	z	1	square	global	LVF	yes	present	1	506
5cdad620eae6f70019d4e950	477459	4	main	z	2	circle	global	LVF	yes	present	1	593
5cdad620eae6f70019d4e950	479043	4	main	z	3	square	global	RVF	yes	present	1	576
5cdad620eae6f70019d4e950	482183	4	main	z	4	absent	absent	absent	no	absent	1	2000
5cdad620eae6f70019d4e950	483603	4	main	z	5	circle	local	RVF	yes	present	1	453
5cdad620eae6f70019d4e950	485387	4	main	z	6	circle	local	RVF	yes	present	1	620
5cdad620eae6f70019d4e950	487181	4	main	z	7	circle	global	RVF	yes	present	1	795
5cdad620eae6f70019d4e950	488787	4	main	z	8	circle	global	LVF	yes	present	1	587
5cdad620eae6f70019d4e950	491800	4	main	z	9	absent	absent	absent	no	absent	1	2000
5cdad620eae6f70019d4e950	494059	4	main	z	10	square	local	LVF	yes	present	1	1126
5cdad620eae6f70019d4e950	496155	4	main	z	11	square	local	RVF	yes	present	1	1105
5cdad620eae6f70019d4e950	497779	4	main	z	12	square	local	LVF	yes	present	1	629
5cdad620eae6f70019d4e950	499491	4	main	z	13	square	local	LVF	yes	present	1	757
5cdad620eae6f70019d4e950	502403	4	main	z	14	absent	absent	absent	no	absent	1	2000
5cdad620eae6f70019d4e950	504019	4	main	z	15	square	global	LVF	yes	present	1	435
5cdad620eae6f70019d4e950	505507	4	main	z	16	circle	local	LVF	yes	present	1	524
5cdad620eae6f70019d4e950	507011	4	main	z	17	circle	global	LVF	yes	present	1	627
5cdad620eae6f70019d4e950	508416	4	main	z	18	square	global	LVF	yes	present	1	504
5cdad620eae6f70019d4e950	509899	4	main	z	19	circle	local	RVF	yes	present	1	616
5cdad620eae6f70019d4e950	511339	4	main	z	20	circle	local	LVF	yes	present	1	589
5cdad620eae6f70019d4e950	512819	4	main	z	21	circle	local	RVF	yes	present	1	652
5cdad620eae6f70019d4e950	514284	4	main	z	22	circle	local	LVF	yes	present	1	617
5cdad620eae6f70019d4e950	515843	4	main	z	23	circle	global	RVF	yes	present	1	676
5cdad620eae6f70019d4e950	517268	4	main	z	24	circle	global	RVF	yes	present	1	518
5cdad620eae6f70019d4e950	520100	4	main	z	25	square	local	LVF	yes	absent	0	2000
5cdad620eae6f70019d4e950	523050	4	main	z	26	absent	absent	absent	no	absent	1	2000
5cdad620eae6f70019d4e950	531275	4	main	z	27	circle	global	LVF	yes	present	1	541
5cdad620eae6f70019d4e950	532714	4	main	z	28	square	global	LVF	yes	present	1	508
5cdad620eae6f70019d4e950	534099	4	main	z	29	square	global	RVF	yes	present	1	483
5cdad620eae6f70019d4e950	535570	4	main	z	30	square	local	RVF	yes	present	1	620
5cdad620eae6f70019d4e950	536978	4	main	z	31	circle	global	RVF	yes	present	1	595
5cdad620eae6f70019d4e950	538467	4	main	z	32	square	global	RVF	yes	present	1	566
5cdad620eae6f70019d4e950	540043	4	main	z	33	square	local	RVF	yes	present	1	743
5cdad620eae6f70019d4e950	542816	4	main	z	34	absent	absent	absent	no	absent	1	2000
5cdad620eae6f70019d4e950	544381	4	main	z	35	circle	local	LVF	yes	present	1	513
5cdad620eae6f70019d4e950	547433	4	main	z	36	absent	absent	absent	no	absent	1	2000
5cdad620eae6f70019d4e950	549131	4	main	z	37	absent	absent	absent	no	present	0	598
5cdad620eae6f70019d4e950	552033	4	main	z	38	absent	absent	absent	no	absent	1	2000
5cdad620eae6f70019d4e950	553547	4	main	z	39	square	global	RVF	yes	present	1	564
5cdad620eae6f70019d4e950	555075	4	main	z	40	square	local	RVF	yes	present	1	608
5cdad620eae6f70019d4e950	556451	4	main	z	41	square	global	LVF	yes	present	1	567
5cdad620eae6f70019d4e950	557955	4	main	z	42	square	local	LVF	yes	present	1	738
5cdad620eae6f70019d4e950	559411	4	main	z	43	square	local	RVF	yes	present	1	678
5cdad620eae6f70019d4e950	560754	4	main	z	44	square	local	LVF	yes	present	1	621
5cdad620eae6f70019d4e950	562186	4	main	z	45	square	global	LVF	yes	present	1	670
5cdad620eae6f70019d4e950	564933	4	main	z	46	absent	absent	absent	no	absent	1	2000
5cdad620eae6f70019d4e950	584515	4	main	z	47	circle	global	RVF	yes	present	1	515
5cdad620eae6f70019d4e950	585979	4	main	z	48	square	local	LVF	yes	present	1	529
5cdad620eae6f70019d4e950	587523	4	main	z	49	square	local	LVF	yes	present	1	673
5cdad620eae6f70019d4e950	588923	4	main	z	50	circle	local	LVF	yes	present	1	574
5cdad620eae6f70019d4e950	590347	4	main	z	51	circle	local	LVF	yes	present	1	614
5cdad620eae6f70019d4e950	593117	4	main	z	52	absent	absent	absent	no	absent	1	2000
5cdad620eae6f70019d4e950	594702	4	main	z	53	circle	local	RVF	yes	present	1	569
5cdad620eae6f70019d4e950	596067	4	main	z	54	square	global	LVF	yes	present	1	533
5cdad620eae6f70019d4e950	597467	4	main	z	55	circle	global	LVF	yes	present	1	618
5cdad620eae6f70019d4e950	598898	4	main	z	56	square	global	RVF	yes	present	1	682
5cdad620eae6f70019d4e950	601649	4	main	z	57	absent	absent	absent	no	absent	1	2000
5cdad620eae6f70019d4e950	603091	4	main	z	58	circle	global	LVF	yes	present	1	541
5cdad620eae6f70019d4e950	604595	4	main	z	59	square	local	RVF	yes	present	1	729
5cdad620eae6f70019d4e950	606019	4	main	z	60	circle	local	RVF	yes	present	1	635
5cdad620eae6f70019d4e950	607483	4	main	z	61	square	global	RVF	yes	present	1	667
5cdad620eae6f70019d4e950	608907	4	main	z	62	circle	local	LVF	yes	present	1	656
5cdad620eae6f70019d4e950	610371	4	main	z	63	circle	global	RVF	yes	present	1	705
5cdad620eae6f70019d4e950	611772	4	main	z	64	square	global	LVF	yes	present	1	655
5cdad620eae6f70019d4e950	613203	4	main	z	65	circle	local	LVF	yes	present	1	686
5cdad620eae6f70019d4e950	614643	4	main	z	66	square	global	RVF	yes	present	1	677
5cdad620eae6f70019d4e950	616131	4	main	z	67	square	global	RVF	yes	present	1	715
5cdad620eae6f70019d4e950	617603	4	main	z	68	circle	global	RVF	yes	present	1	702
5cdad620eae6f70019d4e950	619003	4	main	z	69	circle	local	RVF	yes	present	1	654
5cdad620eae6f70019d4e950	620467	4	main	z	70	circle	local	RVF	yes	present	1	701
5cdad620eae6f70019d4e950	623217	4	main	z	71	absent	absent	absent	no	absent	1	2000
5cdad620eae6f70019d4e950	626383	4	main	z	72	absent	absent	absent	no	absent	1	2000
5cdad620eae6f70019d4e950	627995	4	main	z	73	square	local	RVF	yes	present	1	679
5cdad620eae6f70019d4e950	631183	4	main	z	74	absent	absent	absent	no	absent	1	2000
5cdad620eae6f70019d4e950	634116	4	main	z	75	absent	absent	absent	no	absent	1	2000
5cdad620eae6f70019d4e950	635611	4	main	z	76	circle	global	LVF	yes	present	1	577
5cdad620eae6f70019d4e950	637411	4	main	z	77	square	local	RVF	yes	present	1	578
5cdad620eae6f70019d4e950	638899	4	main	z	78	circle	global	RVF	yes	present	1	583
5cdad620eae6f70019d4e950	640339	4	main	z	79	circle	global	LVF	yes	present	1	605
5cdad620eae6f70019d4e950	643099	4	main	z	80	absent	absent	absent	no	absent	1	2000
