subject	time_elapsed_ms	blocknum	block_type	block_response	trialnum	target	level	field	target_present	response	correct	rt
5f130f09fb14da018aa6bd19	217378	1	practice	slash	1	circle	global	RVF	yes	absent	0	2000
5f130f09fb14da018aa6bd19	220929	1	practice	slash	2	circle	global	LVF	yes	present	1	814
5f130f09fb14da018aa6bd19	224557	1	practice	slash	3	square	global	LVF	yes	present	1	756
5f130f09fb14da018aa6bd19	230410	1	practice	slash	4	absent	absent	absent	no	absent	1	2000
5f130f09fb14da018aa6bd19	233477	1	practice	slash	5	circle	global	RVF	yes	present	1	697
5f130f09fb14da018aa6bd19	237736	1	practice	slash	6	square	global	LVF	yes	absent	0	2000
5f130f09fb14da018aa6bd19	241293	1	practice	slash	7	circle	local	RVF	yes	present	1	1339
5f130f09fb14da018aa6bd19	245544	1	practice	slash	8	absent	absent	absent	no	absent	1	2000
5f130f09fb14da018aa6bd19	249749	1	practice	slash	9	square	local	LVF	yes	absent	0	2000
5f130f09fb14da018aa6bd19	253000	1	practice	slash	10	square	global	RVF	yes	present	1	1199
5f130f09fb14da018aa6bd19	256219	1	practice	slash	11	circle	local	RVF	yes	present	1	931
5f130f09fb14da018aa6bd19	260796	1	practice	slash	12	absent	absent	absent	no	absent	1	2000
5f130f09fb14da018aa6bd19	267021	1	practice	slash	13	square	local	LVF	yes	absent	0	2000
5f130f09fb14da018aa6bd19	270137	1	practice	slash	14	circle	global	LVF	yes	present	1	848
5f130f09fb14da018aa6bd19	272848	1	practice	slash	15	circle	local	RVF	yes	present	1	555
5f130f09fb14da018aa6bd19	276950	1	practice	slash	16	absent	absent	absent	no	absent	1	2000
5f130f09fb14da018aa6bd19	286163	2	main	slash	1	absent	absent	absent	no	absent	1	2000
5f130f09fb14da018aa6bd19	287792	2	main	slash	2	circle	local	LVF	yes	present	1	413
5f130f09fb14da018aa6bd19	290572	2	main	slash	3	square	local	RVF	yes	present	1	1007
5f130f09fb14da018aa6bd19	293133	2	main	slash	4	square	global	RVF	yes	present	1	831
5f130f09fb14da018aa6bd19	296245	2	main	slash	5	circle	global	LVF	yes	present	1	405
5f130f09fb14da018aa6bd19	299746	2	main	slash	6	absent	absent	absent	no	absent	1	2000
5f130f09fb14da018aa6bd19	301811	2	main	slash	7	circle	local	RVF	yes	present	1	764
5f130f09fb14da018aa6bd19	303914	2	main	slash	8	square	global	RVF	yes	present	1	514
5f130f09fb14da018aa6bd19	305640	2	main	slash	9	square	global	RVF	yes	present	1	438
5f130f09fb14da018aa6bd19	307751	2	main	slash	10	circle	global	RVF	yes	present	1	731
5f130f09fb14da018aa6bd19	311092	2	main	slash	11	absent	absent	absent	no	absent	1	2000
5f130f09fb14da018aa6bd19	312983	2	main	slash	12	circle	local	RVF	yes	present	1	706
5f130f09fb14da018aa6bd19	315887	2	main	slash	13	square	local	RVF	yes	present	1	1440
5f130f09fb14da018aa6bd19	319604	2	main	slash	14	absent	absent	absent	no	absent	1	2000
5f130f09fb14da018aa6bd19	322740	2	main	slash	15	square	local	LVF	yes	absent	0	2000
5f130f09fb14da018aa6bd19	325065	2	main	slash	16	square	global	LVF	yes	present	1	1023
5f130f09fb14da018aa6bd19	328631	2	main	slash	17	square	local	LVF	yes	absent	0	2000
5f130f09fb14da018aa6bd19	330647	2	main	slash	18	square	global	LVF	yes	present	1	998
5f130f09fb14da018aa6bd19	333190	2	main	slash	19	circle	global	LVF	yes	present	1	689
5f130f09fb14da018aa6bd19	334992	2	main	slash	20	circle	local	RVF	yes	present	1	521
5f130f09fb14da018aa6bd19	337161	2	main	slash	21	circle	global	RVF	yes	present	1	555
5f130f09fb14da018aa6bd19	338921	2	main	slash	22	circle	local	RVF	yes	present	1	430
5f130f09fb14da018aa6bd19	342080	2	main	slash	23	absent	absent	absent	no	absent	1	2000
5f130f09fb14da018aa6bd19	344071	2	main	slash	24	circle	local	LVF	yes	present	1	806
5f130f09fb14da018aa6bd19	346081	2	main	slash	25	square	local	RVF	yes	present	1	881
5f130f09fb14da018aa6bd19	348292	2	main	slash	26	square	local	LVF	yes	present	1	1089
5f130f09fb14da018aa6bd19	350345	2	main	slash	27	circle	global	LVF	yes	present	1	907
5f130f09fb14da018aa6bd19	353478	2	main	slash	28	absent	absent	absent	no	absent	1	2000
5f130f09fb14da018aa6bd19	357015	2	main	slash	29	absent	absent	absent	no	absent	1	2000
5f130f09fb14da018aa6bd19	358764	2	main	slash	30	circle	local	LVF	yes	present	1	664
5f130f09fb14da018aa6bd19	361376	2	main	slash	31	square	local	LVF	yes	present	1	1256
5f130f09fb14da018aa6bd19	363778	2	main	slash	32	square	global	LVF	yes	present	1	1307
5f130f09fb14da018aa6bd19	366860	2	main	slash	33	absent	absent	absent	no	absent	1	2000
5f130f09fb14da018aa6bd19	369370	2	main	slash	34	square	global	RVF	yes	present	1	1023
5f130f09fb14da018aa6bd19	371789	2	main	slash	35	circle	global	RVF	yes	present	1	640
5f130f09fb14da018aa6bd19	373465	2	main	slash	36	circle	global	RVF	yes	present	1	596
5f130f09fb14da018aa6bd19	375017	2	main	slash	37	circle	global	LVF	yes	present	1	480
5f130f09fb14da018aa6bd19	376686	2	main	slash	38	square	local	RVF	yes	present	1	480
5f130f09fb14da018aa6bd19	378313	2	main	slash	39	square	global	LVF	yes	present	1	639
5f130f09fb14da018aa6bd19	379657	2	main	slash	40	circle	local	LVF	yes	present	1	497
5f130f09fb14da018aa6bd19	381125	2	main	slash	41	square	global	RVF	yes	present	1	563
5f130f09fb14da018aa6bd19	382409	2	main	slash	42	square	global	LVF	yes	present	1	447
5f130f09fb14da018aa6bd19	383652	2	main	slash	43	circle	global	RVF	yes	present	1	405
5f130f09fb14da018aa6bd19	384954	2	main	slash	44	circle	global	RVF	yes	present	1	421
5f130f09fb14da018aa6bd19	386264	2	main	slash	45	square	global	RVF	yes	present	1	446
5f130f09fb14da018aa6bd19	387782	2	main	slash	46	circle	local	RVF	yes	present	1	528
5f130f09fb14da018aa6bd19	389308	2	main	slash	47	square	local	LVF	yes	present	1	554
5f130f09fb14da018aa6bd19	390543	2	main	slash	48	absent	absent	absent	no	present	0	371
5f130f09fb14da018aa6bd19	392647	2	main	slash	49	circle	global	LVF	yes	present	1	723
5f130f09fb14da018aa6bd19	394467	2	main	slash	50	square	global	RVF	yes	present	1	506
5f130f09fb14da018aa6bd19	396034	2	main	slash	51	circle	global	LVF	yes	present	1	588
5f130f09fb14da018aa6bd19	399368	2	main	slash	52	square	local	RVF	yes	absent	0	2000
5f130f09fb14da018aa6bd19	400781	2	main	slash	53	circle	local	RVF	yes	present	1	380
5f130f09fb14da018aa6bd19	403889	2	main	slash	54	absent	absent	absent	no	absent	1	2000
5f130f09fb14da018aa6bd19	407378	2	main	slash	55	square	local	LVF	yes	absent	0	2000
5f130f09fb14da018aa6bd19	410613	2	main	slash	56	absent	absent	absent	no	absent	1	2000
5f130f09fb14da018aa6bd19	414986	2	main	slash	57	absent	absent	absent	no	absent	1	2000
5f130f09fb14da018aa6bd19	416451	2	main	slash	58	square	global	LVF	yes	present	1	481
5f130f09fb14da018aa6bd19	419525	2	main	slash	59	absent	absent	absent	no	absent	1	2000
5f130f09fb14da018aa6bd19	420997	2	main	slash	60	circle	global	LVF	yes	present	1	521
5f130f09fb14da018aa6bd19	422908	2	main	slash	61	circle	global	RVF	yes	present	1	463
5f130f09fb14da018aa6bd19	424869	2	main	slash	62	circle	local	RVF	yes	present	1	689
5f130f09fb14da018aa6bd19	426504	2	main	slash	63	square	local	RVF	yes	present	1	505
5f130f09fb14da018aa6bd19	427864	2	main	slash	64	circle	local	LVF	yes	present	1	447
5f130f09fb14da018aa6bd19	429983	2	main	slash	65	square	local	LVF	yes	present	1	781
5f130f09fb14da018aa6bd19	431585	2	main	slash	66	circle	local	LVF	yes	present	1	412
5f130f09fb14da018aa6bd19	433572	2	main	slash	67	square	global	LVF	yes	present	1	898
5f130f09fb14da018aa6bd19	435432	2	main	slash	68	square	local	LVF	yes	present	1	673
5f130f09fb14da018aa6bd19	436856	2	main	slash	69	circle	local	LVF	yes	present	1	428
5f130f09fb14da018aa6bd19	438334	2	main	slash	70	square	local	RVF	yes	present	1	438
5f130f09fb14da018aa6bd19	439685	2	main	slash	71	circle	local	RVF	yes	present	1	387
5f130f09fb14da018aa6bd19	441405	2	main	slash	72	absent	absent	absent	no	present	0	739
5f130f09fb14da018aa6bd19	444388	2	main	slash	73	circle	global	RVF	yes	absent	0	2000
5f130f09fb14da018aa6bd19	446219	2	main	slash	74	square	global	LVF	yes	present	1	546
5f130f09fb14da018aa6bd19	449343	2	main	slash	75	absent	absent	absent	no	absent	1	2000
5f130f09fb14da018aa6bd19	450849	2	main	slash	76	square	global	RVF	yes	present	1	455
5f130f09fb14da018aa6bd19	453916	2	main	slash	77	square	local	RVF	yes	absent	0	2000
5f130f09fb14da018aa6bd19	455687	2	main	slash	78	circle	global	LVF	yes	present	1	438
5f130f09fb14da018aa6bd19	457105	2	main	slash	79	circle	local	LVF	yes	present	1	388
5f130f09fb14da018aa6bd19	460107	2	main	slash	80	absent	absent	absent	no	absent	1	2000
5f130f09fb14da018aa6bd19	487369	3	practice	z	1	square	local	LVF	yes	present	1	482
5f130f09fb14da018aa6bd19	491414	3	practice	z	2	circle	global	RVF	yes	present	1	372
5f130f09fb14da018aa6bd19	494443	3	practice	z	3	square	local	LVF	yes	present	1	781
5f130f09fb14da018aa6bd19	497179	3	practice	z	4	circle	global	RVF	yes	present	1	546
5f130f09fb14da018aa6bd19	500150	3	practice	z	5	square	global	LVF	yes	present	1	815
5f130f09fb14da018aa6bd19	502669	3	practice	z	6	circle	local	RVF	yes	present	1	447
5f130f09fb14da018aa6bd19	505164	3	practice	z	7	square	global	LVF	yes	present	1	537
5f130f09fb14da018aa6bd19	508186	3	practice	z	8	square	global	RVF	yes	present	1	973
5f130f09fb14da018aa6bd19	510788	3	practice	z	9	circle	local	RVF	yes	present	1	538
5f130f09fb14da018aa6bd19	515174	3	practice	z	10	absent	absent	absent	no	absent	1	2000
5f130f09fb14da018aa6bd19	519161	3	practice	z	11	absent	absent	absent	no	absent	1	2000
5f130f09fb14da018aa6bd19	521886	3	practice	z	12	circle	local	RVF	yes	present	1	571
5f130f09fb14da018aa6bd19	524569	3	practice	z	13	circle	global	LVF	yes	present	1	536
5f130f09fb14da018aa6bd19	528806	3	practice	z	14	absent	absent	absent	no	absent	1	2000
5f130f09fb14da018aa6bd19	532316	3	practice	z	15	absent	absent	absent	no	present	0	1173
5f130f09fb14da018aa6bd19	535335	3	practice	z	16	circle	global	LVF	yes	present	1	555
5f130f09fb14da018aa6bd19	540416	4	main	z	1	absent	absent	absent	no	present	0	562
5f130f09fb14da018aa6bd19	541810	4	main	z	2	circle	local	RVF	yes	present	1	554
5f130f09fb14da018aa6bd19	545207	4	main	z	3	circle	global	LVF	yes	present	1	497
5f130f09fb14da018aa6bd19	547141	4	main	z	4	circle	local	RVF	yes	present	1	430
5f130f09fb14da018aa6bd19	549370	4	main	z	5	square	local	RVF	yes	present	1	1124
5f130f09fb14da018aa6bd19	551221	4	main	z	6	circle	global	RVF	yes	present	1	752
5f130f09fb14da018aa6bd19	554255	4	main	z	7	square	local	RVF	yes	absent	0	2000
5f130f09fb14da018aa6bd19	555952	4	main	z	8	square	local	LVF	yes	present	1	497
5f130f09fb14da018aa6bd19	558055	4	main	z	9	square	global	LVF	yes	present	1	580
5f130f09fb14da018aa6bd19	559539	4	main	z	10	circle	local	LVF	yes	present	1	413
5f130f09fb14da018aa6bd19	561501	4	main	z	11	square	local	LVF	yes	present	1	940
5f130f09fb14da018aa6bd19	562918	4	main	z	12	square	global	LVF	yes	present	1	487
5f130f09fb14da018aa6bd19	564537	4	main	z	13	circle	local	LVF	yes	present	1	455
5f130f09fb14da018aa6bd19	566148	4	main	z	14	circle	global	RVF	yes	present	1	665
5f130f09fb14da018aa6bd19	567624	4	main	z	15	square	global	RVF	yes	present	1	572
5f130f09fb14da018aa6bd19	569084	4	main	z	16	square	global	LVF	yes	present	1	546
5f130f09fb14da018aa6bd19	570887	4	main	z	17	circle	global	RVF	yes	present	1	664
5f130f09fb14da018aa6bd19	572380	4	main	z	18	circle	local	LVF	yes	present	1	572
5f130f09fb14da018aa6bd19	575479	4	main	z	19	absent	absent	absent	no	absent	1	2000
5f130f09fb14da018aa6bd19	577287	4	main	z	20	circle	local	RVF	yes	present	1	656
5f130f09fb14da018aa6bd19	580536	4	main	z	21	absent	absent	absent	no	absent	1	2000
5f130f09fb14da018aa6bd19	582392	4	main	z	22	square	local	LVF	yes	present	1	520
5f130f09fb14da018aa6bd19	586009	4	main	z	23	absent	absent	absent	no	absent	1	2000
5f130f09fb14da018aa6bd19	587825	4	main	z	24	circle	local	RVF	yes	present	1	547
5f130f09fb14da018aa6bd19	591049	4	main	z	25	absent	absent	absent	no	absent	1	2000
5f130f09fb14da018aa6bd19	592405	4	main	z	26	circle	global	LVF	yes	present	1	439
5f130f09fb14da018aa6bd19	594199	4	main	z	27	circle	local	LVF	yes	present	1	430
5f130f09fb14da018aa6bd19	595917	4	main	z	28	square	global	RVF	yes	present	1	614
5f130f09fb14da018aa6bd19	597520	4	main	z	29	circle	global	LVF	yes	present	1	564
5f130f09fb14da018aa6bd19	599731	4	main	z	30	square	local	LVF	yes	present	1	472
5f130f09fb14da018aa6bd19	602864	4	main	z	31	circle	global	LVF	yes	absent	0	2000
5f130f09fb14da018aa6bd19	605381	4	main	z	32	absent	absent	absent	no	present	0	1449
5f130f09fb14da018aa6bd19	608822	4	main	z	33	absent	absent	absent	no	absent	1	2000
5f130f09fb14da018aa6bd19	610346	4	main	z	34	circle	global	RVF	yes	present	1	590
5f130f09fb14da018aa6bd19	613659	4	main	z	35	square	global	RVF	yes	present	1	1834
5f130f09fb14da018aa6bd19	615709	4	main	z	36	square	global	RVF	yes	present	1	346
5f130f09fb14da018aa6bd19	618868	4	main	z	37	absent	absent	absent	no	absent	1	2000
5f130f09fb14da018aa6bd19	620492	4	main	z	38	square	local	RVF	yes	present	1	639
5f130f09fb14da018aa6bd19	622158	4	main	z	39	square	local	RVF	yes	present	1	520
5f130f09fb14da018aa6bd19	623787	4	main	z	40	square	global	LVF	yes	present	1	614
5f130f09fb14da018aa6bd19	625272	4	main	z	41	circle	local	LVF	yes	present	1	513
5f130f09fb14da018aa6bd19	627902	4	main	z	42	absent	absent	absent	no	present	0	1658
5f130f09fb14da018aa6bd19	631066	4	main	z	43	absent	absent	absent	no	absent	1	2000
5f130f09fb14da018aa6bd19	635539	4	main	z	44	absent	absent	absent	no	absent	1	2000
5f130f09fb14da018aa6bd19	637538	4	main	z	45	circle	global	LVF	yes	present	1	598
5f130f09fb14da018aa6bd19	639255	4	main	z	46	square	global	LVF	yes	present	1	629
5f130f09fb14da018aa6bd19	642264	4	main	z	47	absent	absent	absent	no	absent	1	2000
5f130f09fb14da018aa6bd19	644195	4	main	z	48	square	local	LVF	yes	present	1	630
5f130f09fb14da018aa6bd19	645830	4	main	z	49	square	local	LVF	yes	present	1	596
5f130f09fb14da018aa6bd19	647532	4	main	z	50	square	global	RVF	yes	present	1	630
5f130f09fb14da018aa6bd19	649008	4	main	z	51	circle	local	RVF	yes	present	1	422
5f130f09fb14da018aa6bd19	651262	4	main	z	52	square	global	LVF	yes	present	1	589
5f130f09fb14da018aa6bd19	653014	4	main	z	53	square	local	RVF	yes	present	1	589
5f130f09fb14da018aa6bd19	654958	4	main	z	54	circle	local	RVF	yes	present	1	381
5f130f09fb14da018aa6bd19	656534	4	main	z	55	circle	global	RVF	yes	present	1	572
5f130f09fb14da018aa6bd19	658429	4	main	z	56	square	local	LVF	yes	present	1	882
5f130f09fb14da018aa6bd19	661570	4	main	z	57	absent	absent	absent	no	absent	1	2000
5f130f09fb14da018aa6bd19	663353	4	main	z	58	circle	local	LVF	yes	present	1	581
5f130f09fb14da018aa6bd19	665086	4	main	z	59	circle	global	LVF	yes	present	1	580
5f130f09fb14da018aa6bd19	666629	4	main	z	60	square	global	LVF	yes	present	1	554
5f130f09fb14da018aa6bd19	668357	4	main	z	61	circle	global	RVF	yes	present	1	698
5f130f09fb14da018aa6bd19	670117	4	main	z	62	square	global	RVF	yes	present	1	756
5f130f09fb14da018aa6bd19	673067	4	main	z	63	circle	global	RVF	yes	absent	0	2000
5f130f09fb14da018aa6bd19	674907	4	main	z	64	circle	local	LVF	yes	present	1	505
5f130f09fb14da018aa6bd19	677009	4	main	z	65	square	local	RVF	yes	present	1	990
5f130f09fb14da018aa6bd19	678719	4	main	z	66	circle	global	LVF	yes	present	1	814
5f130f09fb14da018aa6bd19	680389	4	main	z	67	square	global	RVF	yes	present	1	631
5f130f09fb14da018aa6bd19	682033	4	main	z	68	circle	local	RVF	yes	present	1	507
5f130f09fb14da018aa6bd19	683433	4	main	z	69	circle	local	LVF	yes	present	1	438
5f130f09fb14da018aa6bd19	685252	4	main	z	70	square	global	RVF	yes	present	1	739
5f130f09fb14da018aa6bd19	686871	4	main	z	71	circle	global	RVF	yes	present	1	689
5f130f09fb14da018aa6bd19	688590	4	main	z	72	square	local	RVF	yes	present	1	690
5f130f09fb14da018aa6bd19	690918	4	main	z	73	square	local	RVF	yes	present	1	915
5f130f09fb14da018aa6bd19	694042	4	main	z	74	circle	global	LVF	yes	absent	0	2000
5f130f09fb14da018aa6bd19	695715	4	main	z	75	circle	local	RVF	yes	present	1	355
5f130f09fb14da018aa6bd19	698681	4	main	z	76	absent	absent	absent	no	absent	1	2000
5f130f09fb14da018aa6bd19	701985	4	main	z	77	absent	absent	absent	no	absent	1	2000
5f130f09fb14da018aa6bd19	703534	4	main	z	78	square	global	LVF	yes	present	1	631
5f130f09fb14da018aa6bd19	706642	4	main	z	79	absent	absent	absent	no	absent	1	2000
5f130f09fb14da018aa6bd19	708657	4	main	z	80	square	local	LVF	yes	present	1	1098
