subject	time_elapsed_ms	blocknum	block_type	block_response	trialnum	target	level	field	target_present	response	correct	rt
6147970dcfd3a1be94292adb	126705	1	practice	slash	1	circle	global	LVF	yes	present	1	556
6147970dcfd3a1be94292adb	129707	1	practice	slash	2	circle	global	RVF	yes	present	1	561
6147970dcfd3a1be94292adb	133040	1	practice	slash	3	square	local	LVF	yes	present	1	1012
6147970dcfd3a1be94292adb	136092	1	practice	slash	4	square	global	LVF	yes	present	1	718
6147970dcfd3a1be94292adb	138883	1	practice	slash	5	circle	global	LVF	yes	present	1	628
6147970dcfd3a1be94292adb	143019	1	practice	slash	6	absent	absent	absent	no	absent	1	2000
6147970dcfd3a1be94292adb	147182	1	practice	slash	7	absent	absent	absent	no	absent	1	2000
6147970dcfd3a1be94292adb	151212	1	practice	slash	8	absent	absent	absent	no	absent	1	2000
6147970dcfd3a1be94292adb	153846	1	practice	slash	9	square	local	LVF	yes	present	1	704
6147970dcfd3a1be94292adb	156861	1	practice	slash	10	circle	local	RVF	yes	present	1	856
6147970dcfd3a1be94292adb	160937	1	practice	slash	11	absent	absent	absent	no	absent	1	2000
6147970dcfd3a1be94292adb	163688	1	practice	slash	12	circle	local	RVF	yes	present	1	688
6147970dcfd3a1be94292adb	167380	1	practice	slash	13	circle	local	RVF	yes	present	1	683
6147970dcfd3a1be94292adb	170156	1	practice	slash	14	circle	global	RVF	yes	present	1	662
6147970dcfd3a1be94292adb	172874	1	practice	slash	15	square	global	LVF	yes	present	1	715
6147970dcfd3a1be94292adb	175584	1	practice	slash	16	square	global	RVF	yes	present	1	711
6147970dcfd3a1be94292adb	184094	2	main	slash	1	absent	absent	absent	no	present	0	714
6147970dcfd3a1be94292adb	186107	2	main	slash	2	circle	local	RVF	yes	present	1	578
6147970dcfd3a1be94292adb	187886	2	main	slash	3	square	global	RVF	yes	present	1	659
6147970dcfd3a1be94292adb	190958	2	main	slash	4	absent	absent	absent	no	absent	1	2000
6147970dcfd3a1be94292adb	192886	2	main	slash	5	square	global	LVF	yes	present	1	613
6147970dcfd3a1be94292adb	196037	2	main	slash	6	absent	absent	absent	no	absent	1	2000
6147970dcfd3a1be94292adb	199119	2	main	slash	7	square	local	RVF	yes	absent	0	2000
6147970dcfd3a1be94292adb	202099	2	main	slash	8	absent	absent	absent	no	absent	1	2000
6147970dcfd3a1be94292adb	205147	2	main	slash	9	absent	absent	absent	no	absent	1	2000
6147970dcfd3a1be94292adb	207175	2	main	slash	10	square	global	RVF	yes	present	1	898
6147970dcfd3a1be94292adb	209003	2	main	slash	11	square	global	LVF	yes	present	1	679
6147970dcfd3a1be94292adb	210827	2	main	slash	12	square	global	RVF	yes	present	1	703
6147970dcfd3a1be94292adb	212584	2	main	slash	13	circle	global	LVF	yes	present	1	712
6147970dcfd3a1be94292adb	214415	2	main	slash	14	circle	local	RVF	yes	present	1	760
6147970dcfd3a1be94292adb	216397	2	main	slash	15	circle	global	RVF	yes	present	1	961
6147970dcfd3a1be94292adb	218234	2	main	slash	16	circle	local	LVF	yes	present	1	799
6147970dcfd3a1be94292adb	221282	2	main	slash	17	absent	absent	absent	no	absent	1	2000
6147970dcfd3a1be94292adb	223151	2	main	slash	18	square	local	RVF	yes	present	1	888
6147970dcfd3a1be94292adb	224906	2	main	slash	19	square	local	LVF	yes	present	1	728
6147970dcfd3a1be94292adb	226811	2	main	slash	20	square	global	LVF	yes	present	1	818
6147970dcfd3a1be94292adb	228598	2	main	slash	21	circle	local	RVF	yes	present	1	740
6147970dcfd3a1be94292adb	230431	2	main	slash	22	circle	global	RVF	yes	present	1	774
6147970dcfd3a1be94292adb	232315	2	main	slash	23	circle	local	LVF	yes	present	1	843
6147970dcfd3a1be94292adb	234264	2	main	slash	24	square	local	RVF	yes	present	1	961
6147970dcfd3a1be94292adb	236141	2	main	slash	25	square	local	LVF	yes	present	1	823
6147970dcfd3a1be94292adb	238045	2	main	slash	26	circle	global	RVF	yes	present	1	845
6147970dcfd3a1be94292adb	239966	2	main	slash	27	square	global	RVF	yes	present	1	884
6147970dcfd3a1be94292adb	241889	2	main	slash	28	square	local	RVF	yes	present	1	876
6147970dcfd3a1be94292adb	243828	2	main	slash	29	square	global	LVF	yes	present	1	881
6147970dcfd3a1be94292adb	245876	2	main	slash	30	square	local	LVF	yes	present	1	999
6147970dcfd3a1be94292adb	248941	2	main	slash	31	square	local	LVF	yes	absent	0	2000
6147970dcfd3a1be94292adb	250792	2	main	slash	32	circle	global	LVF	yes	present	1	836
6147970dcfd3a1be94292adb	252589	2	main	slash	33	circle	local	LVF	yes	present	1	768
6147970dcfd3a1be94292adb	255602	2	main	slash	34	absent	absent	absent	no	absent	1	2000
6147970dcfd3a1be94292adb	257634	2	main	slash	35	circle	local	RVF	yes	present	1	934
6147970dcfd3a1be94292adb	260614	2	main	slash	36	absent	absent	absent	no	absent	1	2000
6147970dcfd3a1be94292adb	262412	2	main	slash	37	circle	global	LVF	yes	present	1	850
6147970dcfd3a1be94292adb	264250	2	main	slash	38	circle	global	RVF	yes	present	1	806
6147970dcfd3a1be94292adb	266037	2	main	slash	39	circle	local	LVF	yes	present	1	745
6147970dcfd3a1be94292adb	267856	2	main	slash	40	circle	global	LVF	yes	present	1	749
6147970dcfd3a1be94292adb	269711	2	main	slash	41	square	local	LVF	yes	present	1	839
6147970dcfd3a1be94292adb	271651	2	main	slash	42	square	local	LVF	yes	present	1	930
6147970dcfd3a1be94292adb	273438	2	main	slash	43	square	global	RVF	yes	present	1	802
6147970dcfd3a1be94292adb	275296	2	main	slash	44	absent	absent	absent	no	present	0	862
6147970dcfd3a1be94292adb	276964	2	main	slash	45	square	global	LVF	yes	present	1	698
6147970dcfd3a1be94292adb	278674	2	main	slash	46	square	local	RVF	yes	present	1	676
6147970dcfd3a1be94292adb	280532	2	main	slash	47	circle	global	LVF	yes	present	1	836
6147970dcfd3a1be94292adb	282342	2	main	slash	48	circle	local	RVF	yes	present	1	815
6147970dcfd3a1be94292adb	284158	2	main	slash	49	circle	global	RVF	yes	present	1	831
6147970dcfd3a1be94292adb	286034	2	main	slash	50	square	local	LVF	yes	present	1	892
6147970dcfd3a1be94292adb	287915	2	main	slash	51	circle	global	RVF	yes	present	1	891
6147970dcfd3a1be94292adb	289742	2	main	slash	52	square	local	RVF	yes	present	1	854
6147970dcfd3a1be94292adb	291605	2	main	slash	53	square	local	RVF	yes	present	1	852
6147970dcfd3a1be94292adb	293534	2	main	slash	54	circle	local	LVF	yes	present	1	932
6147970dcfd3a1be94292adb	296516	2	main	slash	55	absent	absent	absent	no	absent	1	2000
6147970dcfd3a1be94292adb	298359	2	main	slash	56	square	local	RVF	yes	present	1	912
6147970dcfd3a1be94292adb	301346	2	main	slash	57	absent	absent	absent	no	absent	1	2000
6147970dcfd3a1be94292adb	303049	2	main	slash	58	square	global	LVF	yes	present	1	772
6147970dcfd3a1be94292adb	304784	2	main	slash	59	circle	global	RVF	yes	present	1	742
6147970dcfd3a1be94292adb	307824	2	main	slash	60	absent	absent	absent	no	absent	1	2000
6147970dcfd3a1be94292adb	309762	2	main	slash	61	circle	local	LVF	yes	present	1	675
6147970dcfd3a1be94292adb	311473	2	main	slash	62	square	global	RVF	yes	present	1	738
6147970dcfd3a1be94292adb	313021	2	main	slash	63	square	global	LVF	yes	present	1	536
6147970dcfd3a1be94292adb	316033	2	main	slash	64	absent	absent	absent	no	absent	1	2000
6147970dcfd3a1be94292adb	317726	2	main	slash	65	circle	local	RVF	yes	present	1	695
6147970dcfd3a1be94292adb	319513	2	main	slash	66	square	global	LVF	yes	present	1	801
6147970dcfd3a1be94292adb	321319	2	main	slash	67	circle	global	LVF	yes	present	1	808
6147970dcfd3a1be94292adb	324342	2	main	slash	68	absent	absent	absent	no	absent	1	2000
6147970dcfd3a1be94292adb	326197	2	main	slash	69	square	global	RVF	yes	present	1	891
6147970dcfd3a1be94292adb	329171	2	main	slash	70	absent	absent	absent	no	absent	1	2000
6147970dcfd3a1be94292adb	331036	2	main	slash	71	circle	local	LVF	yes	present	1	833
6147970dcfd3a1be94292adb	332665	2	main	slash	72	square	global	RVF	yes	present	1	664
6147970dcfd3a1be94292adb	335682	2	main	slash	73	absent	absent	absent	no	absent	1	2000
6147970dcfd3a1be94292adb	337388	2	main	slash	74	circle	local	RVF	yes	present	1	708
6147970dcfd3a1be94292adb	339098	2	main	slash	75	circle	local	LVF	yes	present	1	769
6147970dcfd3a1be94292adb	340780	2	main	slash	76	circle	global	LVF	yes	present	1	720
6147970dcfd3a1be94292adb	342553	2	main	slash	77	square	local	LVF	yes	present	1	827
6147970dcfd3a1be94292adb	344432	2	main	slash	78	circle	global	LVF	yes	present	1	925
6147970dcfd3a1be94292adb	346223	2	main	slash	79	circle	global	RVF	yes	present	1	867
6147970dcfd3a1be94292adb	348045	2	main	slash	80	circle	local	RVF	yes	present	1	874
6147970dcfd3a1be94292adb	368409	3	practice	z	1	square	global	LVF	yes	present	1	688
6147970dcfd3a1be94292adb	371258	3	practice	z	2	square	global	RVF	yes	present	1	789
6147970dcfd3a1be94292adb	375366	3	practice	z	3	absent	absent	absent	no	absent	1	2000
6147970dcfd3a1be94292adb	378315	3	practice	z	4	square	local	LVF	yes	present	1	835
6147970dcfd3a1be94292adb	381119	3	practice	z	5	circle	global	RVF	yes	present	1	874
6147970dcfd3a1be94292adb	385041	3	practice	z	6	absent	absent	absent	no	absent	1	2000
6147970dcfd3a1be94292adb	389171	3	practice	z	7	absent	absent	absent	no	absent	1	2000
6147970dcfd3a1be94292adb	392243	3	practice	z	8	circle	local	RVF	yes	present	1	1009
6147970dcfd3a1be94292adb	395381	3	practice	z	9	circle	global	RVF	yes	present	1	1017
6147970dcfd3a1be94292adb	398035	3	practice	z	10	circle	local	RVF	yes	present	1	723
6147970dcfd3a1be94292adb	401255	3	practice	z	11	square	local	LVF	yes	present	1	1195
6147970dcfd3a1be94292adb	404239	3	practice	z	12	square	global	LVF	yes	present	1	915
6147970dcfd3a1be94292adb	407029	3	practice	z	13	circle	local	RVF	yes	present	1	872
6147970dcfd3a1be94292adb	410214	3	practice	z	14	absent	absent	absent	no	present	0	1212
6147970dcfd3a1be94292adb	413099	3	practice	z	15	circle	global	LVF	yes	present	1	865
6147970dcfd3a1be94292adb	415900	3	practice	z	16	circle	global	LVF	yes	present	1	903
6147970dcfd3a1be94292adb	419951	4	main	z	1	square	global	LVF	yes	present	1	759
6147970dcfd3a1be94292adb	421853	4	main	z	2	circle	global	LVF	yes	present	1	629
6147970dcfd3a1be94292adb	424921	4	main	z	3	absent	absent	absent	no	absent	1	2000
6147970dcfd3a1be94292adb	426507	4	main	z	4	circle	global	RVF	yes	present	1	688
6147970dcfd3a1be94292adb	428422	4	main	z	5	square	global	RVF	yes	present	1	904
6147970dcfd3a1be94292adb	430115	4	main	z	6	square	local	RVF	yes	present	1	682
6147970dcfd3a1be94292adb	431810	4	main	z	7	square	local	RVF	yes	present	1	646
6147970dcfd3a1be94292adb	433497	4	main	z	8	circle	global	RVF	yes	present	1	651
6147970dcfd3a1be94292adb	436489	4	main	z	9	absent	absent	absent	no	absent	1	2000
6147970dcfd3a1be94292adb	438152	4	main	z	10	circle	local	RVF	yes	present	1	693
6147970dcfd3a1be94292adb	439967	4	main	z	11	circle	global	RVF	yes	present	1	793
6147970dcfd3a1be94292adb	441784	4	main	z	12	square	global	LVF	yes	present	1	811
6147970dcfd3a1be94292adb	444838	4	main	z	13	absent	absent	absent	no	absent	1	2000
6147970dcfd3a1be94292adb	446472	4	main	z	14	circle	local	RVF	yes	present	1	737
6147970dcfd3a1be94292adb	449450	4	main	z	15	square	local	LVF	yes	absent	0	2000
6147970dcfd3a1be94292adb	451222	4	main	z	16	square	global	RVF	yes	present	1	841
6147970dcfd3a1be94292adb	453105	4	main	z	17	square	global	RVF	yes	present	1	909
6147970dcfd3a1be94292adb	455095	4	main	z	18	circle	global	LVF	yes	present	1	934
6147970dcfd3a1be94292adb	458093	4	main	z	19	absent	absent	absent	no	absent	1	2000
6147970dcfd3a1be94292adb	459947	4	main	z	20	square	local	LVF	yes	present	1	807
6147970dcfd3a1be94292adb	461836	4	main	z	21	square	local	LVF	yes	present	1	847
6147970dcfd3a1be94292adb	463661	4	main	z	22	circle	local	LVF	yes	present	1	824
6147970dcfd3a1be94292adb	465762	4	main	z	23	square	local	RVF	yes	present	1	1160
6147970dcfd3a1be94292adb	468750	4	main	z	24	absent	absent	absent	no	absent	1	2000
6147970dcfd3a1be94292adb	470542	4	main	z	25	square	local	LVF	yes	present	1	911
6147970dcfd3a1be94292adb	472309	4	main	z	26	circle	local	LVF	yes	present	1	813
6147970dcfd3a1be94292adb	474054	4	main	z	27	circle	local	RVF	yes	present	1	776
6147970dcfd3a1be94292adb	477026	4	main	z	28	absent	absent	absent	no	absent	1	2000
6147970dcfd3a1be94292adb	478747	4	main	z	29	square	global	LVF	yes	present	1	790
6147970dcfd3a1be94292adb	480577	4	main	z	30	square	global	RVF	yes	present	1	938
6147970dcfd3a1be94292adb	483554	4	main	z	31	absent	absent	absent	no	absent	1	2000
6147970dcfd3a1be94292adb	485303	4	main	z	32	circle	global	RVF	yes	present	1	834
6147970dcfd3a1be94292adb	487044	4	main	z	33	circle	local	LVF	yes	present	1	794
6147970dcfd3a1be94292adb	488862	4	main	z	34	circle	global	LVF	yes	present	1	864
6147970dcfd3a1be94292adb	490649	4	main	z	35	square	local	RVF	yes	present	1	802
6147970dcfd3a1be94292adb	492610	4	main	z	36	circle	global	LVF	yes	present	1	1048
6147970dcfd3a1be94292adb	495826	4	main	z	37	absent	absent	absent	no	absent	1	2000
6147970dcfd3a1be94292adb	497612	4	main	z	38	circle	local	LVF	yes	present	1	839
6147970dcfd3a1be94292adb	499368	4	main	z	39	square	global	LVF	yes	present	1	847
6147970dcfd3a1be94292adb	501150	4	main	z	40	circle	local	RVF	yes	present	1	863
6147970dcfd3a1be94292adb	502905	4	main	z	41	absent	absent	absent	no	present	0	836
6147970dcfd3a1be94292adb	504736	4	main	z	42	circle	global	RVF	yes	present	1	886
6147970dcfd3a1be94292adb	506553	4	main	z	43	circle	local	RVF	yes	present	1	902
6147970dcfd3a1be94292adb	508280	4	main	z	44	square	global	LVF	yes	present	1	849
6147970dcfd3a1be94292adb	511163	4	main	z	45	absent	absent	absent	no	absent	1	2000
6147970dcfd3a1be94292adb	512821	4	main	z	46	circle	local	RVF	yes	present	1	727
6147970dcfd3a1be94292adb	514626	4	main	z	47	square	global	RVF	yes	present	1	883
6147970dcfd3a1be94292adb	516416	4	main	z	48	square	local	RVF	yes	present	1	893
6147970dcfd3a1be94292adb	519322	4	main	z	49	absent	absent	absent	no	absent	1	2000
6147970dcfd3a1be94292adb	522253	4	main	z	50	absent	absent	absent	no	absent	1	2000
6147970dcfd3a1be94292adb	524228	4	main	z	51	circle	global	RVF	yes	present	1	928
6147970dcfd3a1be94292adb	525881	4	main	z	52	circle	global	LVF	yes	present	1	748
6147970dcfd3a1be94292adb	527677	4	main	z	53	circle	local	LVF	yes	present	1	847
6147970dcfd3a1be94292adb	529564	4	main	z	54	circle	local	LVF	yes	present	1	968
6147970dcfd3a1be94292adb	531305	4	main	z	55	square	local	RVF	yes	present	1	826
6147970dcfd3a1be94292adb	533145	4	main	z	56	circle	global	LVF	yes	present	1	869
6147970dcfd3a1be94292adb	534879	4	main	z	57	circle	local	LVF	yes	present	1	822
6147970dcfd3a1be94292adb	536696	4	main	z	58	square	local	LVF	yes	present	1	873
6147970dcfd3a1be94292adb	538582	4	main	z	59	square	global	LVF	yes	present	1	944
6147970dcfd3a1be94292adb	540570	4	main	z	60	circle	global	LVF	yes	present	1	1050
6147970dcfd3a1be94292adb	542511	4	main	z	61	circle	local	RVF	yes	present	1	993
6147970dcfd3a1be94292adb	544286	4	main	z	62	square	global	RVF	yes	present	1	854
6147970dcfd3a1be94292adb	546139	4	main	z	63	square	local	LVF	yes	present	1	941
6147970dcfd3a1be94292adb	547950	4	main	z	64	circle	global	RVF	yes	present	1	888
6147970dcfd3a1be94292adb	549709	4	main	z	65	circle	global	LVF	yes	present	1	862
6147970dcfd3a1be94292adb	552593	4	main	z	66	absent	absent	absent	no	absent	1	2000
6147970dcfd3a1be94292adb	554352	4	main	z	67	square	global	LVF	yes	present	1	844
6147970dcfd3a1be94292adb	555966	4	main	z	68	circle	local	LVF	yes	present	1	693
6147970dcfd3a1be94292adb	558888	4	main	z	69	absent	absent	absent	no	absent	1	2000
6147970dcfd3a1be94292adb	560689	4	main	z	70	circle	global	RVF	yes	present	1	854
6147970dcfd3a1be94292adb	562527	4	main	z	71	square	global	RVF	yes	present	1	926
6147970dcfd3a1be94292adb	564340	4	main	z	72	square	global	LVF	yes	present	1	874
6147970dcfd3a1be94292adb	567281	4	main	z	73	square	local	LVF	yes	absent	0	2000
6147970dcfd3a1be94292adb	570261	4	main	z	74	absent	absent	absent	no	absent	1	2000
6147970dcfd3a1be94292adb	572052	4	main	z	75	square	local	RVF	yes	present	1	893
6147970dcfd3a1be94292adb	573622	4	main	z	76	square	global	RVF	yes	present	1	648
6147970dcfd3a1be94292adb	575272	4	main	z	77	square	local	RVF	yes	present	1	699
6147970dcfd3a1be94292adb	577076	4	main	z	78	square	local	LVF	yes	present	1	838
6147970dcfd3a1be94292adb	579986	4	main	z	79	absent	absent	absent	no	absent	1	2000
6147970dcfd3a1be94292adb	581675	4	main	z	80	circle	local	RVF	yes	present	1	725
