subject	time_elapsed_ms	blocknum	block_type	block_response	trialnum	target	level	field	target_present	response	correct	rt
630505b4104867e588c31100	108271	1	practice	slash	1	absent	absent	absent	no	absent	1	2000
630505b4104867e588c31100	111313	1	practice	slash	2	circle	local	RVF	yes	present	1	894
630505b4104867e588c31100	114257	1	practice	slash	3	square	global	RVF	yes	present	1	917
630505b4104867e588c31100	117074	1	practice	slash	4	square	local	LVF	yes	present	1	801
630505b4104867e588c31100	119730	1	practice	slash	5	square	global	LVF	yes	present	1	776
630505b4104867e588c31100	122300	1	practice	slash	6	circle	global	RVF	yes	present	1	629
630505b4104867e588c31100	124767	1	practice	slash	7	absent	absent	absent	no	present	0	774
630505b4104867e588c31100	127513	1	practice	slash	8	square	global	LVF	yes	present	1	753
630505b4104867e588c31100	130372	1	practice	slash	9	circle	global	LVF	yes	present	1	751
630505b4104867e588c31100	134367	1	practice	slash	10	absent	absent	absent	no	absent	1	2000
630505b4104867e588c31100	137153	1	practice	slash	11	circle	local	RVF	yes	present	1	814
630505b4104867e588c31100	139912	1	practice	slash	12	circle	local	RVF	yes	present	1	784
630505b4104867e588c31100	143051	1	practice	slash	13	circle	global	RVF	yes	present	1	1101
630505b4104867e588c31100	147001	1	practice	slash	14	absent	absent	absent	no	absent	1	2000
630505b4104867e588c31100	150855	1	practice	slash	15	square	local	LVF	yes	absent	0	2000
630505b4104867e588c31100	153664	1	practice	slash	16	circle	global	LVF	yes	present	1	850
630505b4104867e588c31100	161548	2	main	slash	1	square	local	RVF	yes	present	1	984
630505b4104867e588c31100	163943	2	main	slash	2	square	global	RVF	yes	present	1	930
630505b4104867e588c31100	167084	2	main	slash	3	square	local	LVF	yes	present	1	789
630505b4104867e588c31100	168953	2	main	slash	4	square	global	RVF	yes	present	1	771
630505b4104867e588c31100	172476	2	main	slash	5	circle	local	LVF	yes	present	1	719
630505b4104867e588c31100	174324	2	main	slash	6	circle	local	RVF	yes	present	1	827
630505b4104867e588c31100	176971	2	main	slash	7	circle	global	LVF	yes	present	1	1623
630505b4104867e588c31100	180275	2	main	slash	8	absent	absent	absent	no	absent	1	2000
630505b4104867e588c31100	183285	2	main	slash	9	absent	absent	absent	no	absent	1	2000
630505b4104867e588c31100	186349	2	main	slash	10	circle	global	RVF	yes	present	1	754
630505b4104867e588c31100	188301	2	main	slash	11	square	local	LVF	yes	present	1	970
630505b4104867e588c31100	190374	2	main	slash	12	circle	local	LVF	yes	present	1	1107
630505b4104867e588c31100	192153	2	main	slash	13	square	global	RVF	yes	present	1	879
630505b4104867e588c31100	195103	2	main	slash	14	absent	absent	absent	no	absent	1	2000
630505b4104867e588c31100	197284	2	main	slash	15	absent	absent	absent	no	present	0	1291
630505b4104867e588c31100	201359	2	main	slash	16	circle	global	LVF	yes	present	1	666
630505b4104867e588c31100	203200	2	main	slash	17	square	global	RVF	yes	present	1	833
630505b4104867e588c31100	206231	2	main	slash	18	absent	absent	absent	no	absent	1	2000
630505b4104867e588c31100	208080	2	main	slash	19	circle	global	RVF	yes	present	1	956
630505b4104867e588c31100	209933	2	main	slash	20	circle	local	LVF	yes	present	1	781
630505b4104867e588c31100	211932	2	main	slash	21	square	local	RVF	yes	present	1	864
630505b4104867e588c31100	213763	2	main	slash	22	square	global	LVF	yes	present	1	790
630505b4104867e588c31100	215505	2	main	slash	23	circle	local	RVF	yes	present	1	795
630505b4104867e588c31100	217381	2	main	slash	24	square	local	RVF	yes	present	1	862
630505b4104867e588c31100	219181	2	main	slash	25	square	local	LVF	yes	present	1	822
630505b4104867e588c31100	220930	2	main	slash	26	square	global	LVF	yes	present	1	794
630505b4104867e588c31100	222809	2	main	slash	27	square	local	RVF	yes	present	1	950
630505b4104867e588c31100	224896	2	main	slash	28	circle	global	RVF	yes	present	1	1126
630505b4104867e588c31100	226631	2	main	slash	29	circle	local	RVF	yes	present	1	799
630505b4104867e588c31100	228274	2	main	slash	30	square	local	LVF	yes	present	1	743
630505b4104867e588c31100	231229	2	main	slash	31	absent	absent	absent	no	absent	1	2000
630505b4104867e588c31100	232976	2	main	slash	32	circle	local	LVF	yes	present	1	705
630505b4104867e588c31100	235860	2	main	slash	33	absent	absent	absent	no	absent	1	2000
630505b4104867e588c31100	237615	2	main	slash	34	circle	local	RVF	yes	present	1	716
630505b4104867e588c31100	239261	2	main	slash	35	circle	global	RVF	yes	present	1	806
630505b4104867e588c31100	242077	2	main	slash	36	absent	absent	absent	no	absent	1	2000
630505b4104867e588c31100	243744	2	main	slash	37	square	global	LVF	yes	present	1	652
630505b4104867e588c31100	245290	2	main	slash	38	circle	global	LVF	yes	present	1	733
630505b4104867e588c31100	246728	2	main	slash	39	circle	global	LVF	yes	present	1	671
630505b4104867e588c31100	248130	2	main	slash	40	square	global	LVF	yes	present	1	625
630505b4104867e588c31100	249506	2	main	slash	41	square	local	LVF	yes	present	1	613
630505b4104867e588c31100	251989	2	main	slash	42	square	global	RVF	yes	present	1	1699
630505b4104867e588c31100	255187	2	main	slash	43	circle	global	RVF	yes	present	1	629
630505b4104867e588c31100	256591	2	main	slash	44	square	global	LVF	yes	present	1	623
630505b4104867e588c31100	258121	2	main	slash	45	square	local	LVF	yes	present	1	682
630505b4104867e588c31100	260868	2	main	slash	46	absent	absent	absent	no	absent	1	2000
630505b4104867e588c31100	262461	2	main	slash	47	circle	local	RVF	yes	present	1	661
630505b4104867e588c31100	263927	2	main	slash	48	circle	local	RVF	yes	present	1	664
630505b4104867e588c31100	265375	2	main	slash	49	circle	global	RVF	yes	present	1	660
630505b4104867e588c31100	266830	2	main	slash	50	square	global	RVF	yes	present	1	679
630505b4104867e588c31100	268278	2	main	slash	51	circle	local	LVF	yes	present	1	708
630505b4104867e588c31100	269706	2	main	slash	52	square	global	LVF	yes	present	1	667
630505b4104867e588c31100	271140	2	main	slash	53	square	local	LVF	yes	present	1	658
630505b4104867e588c31100	272979	2	main	slash	54	square	local	RVF	yes	present	1	1062
630505b4104867e588c31100	274444	2	main	slash	55	circle	local	RVF	yes	present	1	670
630505b4104867e588c31100	275889	2	main	slash	56	square	local	LVF	yes	present	1	651
630505b4104867e588c31100	278682	2	main	slash	57	absent	absent	absent	no	absent	1	2000
630505b4104867e588c31100	282598	2	main	slash	58	square	global	LVF	yes	present	1	741
630505b4104867e588c31100	284026	2	main	slash	59	circle	global	LVF	yes	present	1	643
630505b4104867e588c31100	286813	2	main	slash	60	absent	absent	absent	no	absent	1	2000
630505b4104867e588c31100	289879	2	main	slash	61	square	global	LVF	yes	present	1	604
630505b4104867e588c31100	291270	2	main	slash	62	circle	global	RVF	yes	present	1	622
630505b4104867e588c31100	292782	2	main	slash	63	square	global	RVF	yes	present	1	714
630505b4104867e588c31100	295544	2	main	slash	64	absent	absent	absent	no	absent	1	2000
630505b4104867e588c31100	297504	2	main	slash	65	square	global	RVF	yes	present	1	655
630505b4104867e588c31100	300243	2	main	slash	66	absent	absent	absent	no	absent	1	2000
630505b4104867e588c31100	301925	2	main	slash	67	circle	global	LVF	yes	present	1	653
630505b4104867e588c31100	303305	2	main	slash	68	circle	local	LVF	yes	present	1	640
630505b4104867e588c31100	304672	2	main	slash	69	circle	local	LVF	yes	present	1	629
630505b4104867e588c31100	305947	2	main	slash	70	square	local	RVF	yes	present	1	555
630505b4104867e588c31100	308722	2	main	slash	71	absent	absent	absent	no	absent	1	2000
630505b4104867e588c31100	310404	2	main	slash	72	circle	global	LVF	yes	present	1	697
630505b4104867e588c31100	311819	2	main	slash	73	circle	local	RVF	yes	present	1	708
630505b4104867e588c31100	313145	2	main	slash	74	circle	local	LVF	yes	present	1	608
630505b4104867e588c31100	314523	2	main	slash	75	circle	global	LVF	yes	present	1	656
630505b4104867e588c31100	317266	2	main	slash	76	absent	absent	absent	no	absent	1	2000
630505b4104867e588c31100	320137	2	main	slash	77	absent	absent	absent	no	absent	1	2000
630505b4104867e588c31100	321691	2	main	slash	78	square	local	RVF	yes	present	1	667
630505b4104867e588c31100	323095	2	main	slash	79	circle	global	RVF	yes	present	1	685
630505b4104867e588c31100	324404	2	main	slash	80	square	local	RVF	yes	present	1	603
630505b4104867e588c31100	337816	3	practice	z	1	circle	local	RVF	yes	present	1	590
630505b4104867e588c31100	340665	3	practice	z	2	circle	local	RVF	yes	present	1	804
630505b4104867e588c31100	343347	3	practice	z	3	square	local	LVF	yes	present	1	720
630505b4104867e588c31100	345901	3	practice	z	4	square	global	LVF	yes	present	1	670
630505b4104867e588c31100	348692	3	practice	z	5	circle	global	RVF	yes	present	1	833
630505b4104867e588c31100	351476	3	practice	z	6	circle	global	RVF	yes	present	1	723
630505b4104867e588c31100	353965	3	practice	z	7	circle	global	LVF	yes	present	1	729
630505b4104867e588c31100	357718	3	practice	z	8	absent	absent	absent	no	absent	1	2000
630505b4104867e588c31100	360426	3	practice	z	9	square	global	RVF	yes	present	1	747
630505b4104867e588c31100	363076	3	practice	z	10	square	local	LVF	yes	present	1	774
630505b4104867e588c31100	365556	3	practice	z	11	circle	global	LVF	yes	present	1	522
630505b4104867e588c31100	367944	3	practice	z	12	circle	local	RVF	yes	present	1	475
630505b4104867e588c31100	371863	3	practice	z	13	absent	absent	absent	no	absent	1	2000
630505b4104867e588c31100	374587	3	practice	z	14	square	global	LVF	yes	present	1	746
630505b4104867e588c31100	378487	3	practice	z	15	absent	absent	absent	no	absent	1	2000
630505b4104867e588c31100	382496	3	practice	z	16	absent	absent	absent	no	absent	1	2000
630505b4104867e588c31100	387104	4	main	z	1	circle	global	RVF	yes	present	1	812
630505b4104867e588c31100	389162	4	main	z	2	circle	local	LVF	yes	present	1	657
630505b4104867e588c31100	390529	4	main	z	3	circle	local	RVF	yes	present	1	414
630505b4104867e588c31100	391636	4	main	z	4	absent	absent	absent	no	present	0	317
630505b4104867e588c31100	393284	4	main	z	5	circle	global	RVF	yes	present	1	571
630505b4104867e588c31100	394629	4	main	z	6	square	local	LVF	yes	present	1	375
630505b4104867e588c31100	396194	4	main	z	7	square	local	RVF	yes	present	1	421
630505b4104867e588c31100	397410	4	main	z	8	square	local	LVF	yes	present	1	386
630505b4104867e588c31100	399081	4	main	z	9	circle	local	RVF	yes	present	1	906
630505b4104867e588c31100	400598	4	main	z	10	circle	local	LVF	yes	present	1	365
630505b4104867e588c31100	401693	4	main	z	11	square	local	LVF	yes	present	1	395
630505b4104867e588c31100	402760	4	main	z	12	square	global	RVF	yes	present	1	348
630505b4104867e588c31100	404067	4	main	z	13	circle	global	LVF	yes	present	1	377
630505b4104867e588c31100	405140	4	main	z	14	square	global	RVF	yes	present	1	326
630505b4104867e588c31100	406492	4	main	z	15	square	local	RVF	yes	present	1	348
630505b4104867e588c31100	408651	4	main	z	16	circle	local	LVF	yes	present	1	1354
630505b4104867e588c31100	409950	4	main	z	17	square	local	LVF	yes	present	1	600
630505b4104867e588c31100	411175	4	main	z	18	square	global	LVF	yes	present	1	524
630505b4104867e588c31100	413875	4	main	z	19	absent	absent	absent	no	absent	1	2000
630505b4104867e588c31100	416777	4	main	z	20	absent	absent	absent	no	absent	1	2000
630505b4104867e588c31100	418317	4	main	z	21	circle	global	RVF	yes	present	1	647
630505b4104867e588c31100	421031	4	main	z	22	absent	absent	absent	no	absent	1	2000
630505b4104867e588c31100	422353	4	main	z	23	circle	global	LVF	yes	present	1	446
630505b4104867e588c31100	423525	4	main	z	24	circle	local	LVF	yes	present	1	426
630505b4104867e588c31100	426229	4	main	z	25	absent	absent	absent	no	absent	1	2000
630505b4104867e588c31100	427745	4	main	z	26	circle	global	LVF	yes	present	1	512
630505b4104867e588c31100	428824	4	main	z	27	circle	local	RVF	yes	present	1	363
630505b4104867e588c31100	431499	4	main	z	28	absent	absent	absent	no	absent	1	2000
630505b4104867e588c31100	432936	4	main	z	29	circle	local	RVF	yes	present	1	521
630505b4104867e588c31100	434154	4	main	z	30	circle	global	LVF	yes	present	1	555
630505b4104867e588c31100	436851	4	main	z	31	absent	absent	absent	no	absent	1	2000
630505b4104867e588c31100	438154	4	main	z	32	circle	global	RVF	yes	present	1	331
630505b4104867e588c31100	439352	4	main	z	33	square	global	RVF	yes	present	1	532
630505b4104867e588c31100	440705	4	main	z	34	square	local	RVF	yes	present	1	725
630505b4104867e588c31100	441976	4	main	z	35	square	global	LVF	yes	present	1	573
630505b4104867e588c31100	443030	4	main	z	36	square	global	LVF	yes	present	1	399
630505b4104867e588c31100	444058	4	main	z	37	square	global	LVF	yes	present	1	335
630505b4104867e588c31100	445086	4	main	z	38	square	local	RVF	yes	present	1	362
630505b4104867e588c31100	448215	4	main	z	39	absent	absent	absent	no	absent	1	2000
630505b4104867e588c31100	449673	4	main	z	40	square	global	RVF	yes	present	1	533
630505b4104867e588c31100	450825	4	main	z	41	circle	global	RVF	yes	present	1	441
630505b4104867e588c31100	451959	4	main	z	42	circle	local	LVF	yes	present	1	440
630505b4104867e588c31100	453129	4	main	z	43	absent	absent	absent	no	present	0	465
630505b4104867e588c31100	454328	4	main	z	44	square	local	LVF	yes	present	1	390
630505b4104867e588c31100	455445	4	main	z	45	square	local	RVF	yes	present	1	395
630505b4104867e588c31100	456660	4	main	z	46	square	global	RVF	yes	present	1	532
630505b4104867e588c31100	459579	4	main	z	47	absent	absent	absent	no	absent	1	2000
630505b4104867e588c31100	460929	4	main	z	48	circle	local	LVF	yes	present	1	448
630505b4104867e588c31100	462193	4	main	z	49	square	local	LVF	yes	present	1	561
630505b4104867e588c31100	463495	4	main	z	50	circle	global	RVF	yes	present	1	595
630505b4104867e588c31100	464763	4	main	z	51	circle	local	RVF	yes	present	1	574
630505b4104867e588c31100	466015	4	main	z	52	circle	global	LVF	yes	present	1	558
630505b4104867e588c31100	468709	4	main	z	53	absent	absent	absent	no	absent	1	2000
630505b4104867e588c31100	470274	4	main	z	54	square	global	RVF	yes	present	1	631
630505b4104867e588c31100	471520	4	main	z	55	circle	global	LVF	yes	present	1	579
630505b4104867e588c31100	472765	4	main	z	56	square	global	LVF	yes	present	1	527
630505b4104867e588c31100	473917	4	main	z	57	square	local	RVF	yes	present	1	470
630505b4104867e588c31100	476621	4	main	z	58	absent	absent	absent	no	absent	1	2000
630505b4104867e588c31100	478050	4	main	z	59	square	local	RVF	yes	present	1	469
630505b4104867e588c31100	479434	4	main	z	60	circle	global	RVF	yes	present	1	685
630505b4104867e588c31100	481395	4	main	z	61	circle	local	LVF	yes	present	1	383
630505b4104867e588c31100	482553	4	main	z	62	circle	global	RVF	yes	present	1	474
630505b4104867e588c31100	483810	4	main	z	63	circle	local	RVF	yes	present	1	574
630505b4104867e588c31100	486535	4	main	z	64	absent	absent	absent	no	absent	1	2000
630505b4104867e588c31100	487784	4	main	z	65	absent	absent	absent	no	present	0	399
630505b4104867e588c31100	490479	4	main	z	66	absent	absent	absent	no	absent	1	2000
630505b4104867e588c31100	491565	4	main	z	67	square	local	LVF	yes	present	1	453
630505b4104867e588c31100	494248	4	main	z	68	absent	absent	absent	no	absent	1	2000
630505b4104867e588c31100	495497	4	main	z	69	circle	local	RVF	yes	present	1	385
630505b4104867e588c31100	496718	4	main	z	70	square	global	RVF	yes	present	1	524
630505b4104867e588c31100	497838	4	main	z	71	circle	global	LVF	yes	present	1	390
630505b4104867e588c31100	498902	4	main	z	72	square	global	LVF	yes	present	1	377
630505b4104867e588c31100	499990	4	main	z	73	square	global	RVF	yes	present	1	414
630505b4104867e588c31100	501046	4	main	z	74	circle	local	RVF	yes	present	1	308
630505b4104867e588c31100	502142	4	main	z	75	circle	local	LVF	yes	present	1	405
630505b4104867e588c31100	503502	4	main	z	76	square	global	LVF	yes	present	1	679
630505b4104867e588c31100	505054	4	main	z	77	square	global	LVF	yes	present	1	391
630505b4104867e588c31100	507609	4	main	z	78	square	local	RVF	yes	present	1	1860
630505b4104867e588c31100	508937	4	main	z	79	square	local	LVF	yes	present	1	375
630505b4104867e588c31100	510005	4	main	z	80	circle	global	LVF	yes	present	1	347
